word,color,condition,correct_key,condition_tag,thisN,thisTrialN,thisRepN,key_resp_stroop.keys,key_resp_stroop.corr,key_resp_stroop.rt,key_resp_stroop.duration,type,key_resp_oddball.keys,key_resp_oddball.corr,key_resp_oddball.rt,key_resp_oddball.duration,stroop_loop.thisRepN,stroop_loop.thisTrialN,stroop_loop.thisN,stroop_loop.thisIndex,oddball_loop.thisRepN,oddball_loop.thisTrialN,oddball_loop.thisN,oddball_loop.thisIndex,thisRow.t,notes,piloting,Baseline_routine.started,baseline_screen.started,Baseline_routine.stopped,stroop_Instruction.started,instructionStroop.started,stroop_Instruction.stopped,stroop_trial.started,stroop_stim.started,key_resp_stroop.started,stroop_stim.stopped,stroop_trial.stopped,stroop_loop.key_resp_stroop.keys,stroop_loop.key_resp_stroop.corr,ITI.started,text.started,ITI.stopped,stroop_loop.key_resp_stroop.rt,stroop_loop.key_resp_stroop.duration,text.stopped,oddball_instruction.started,instructionOddball.started,oddball_instruction.stopped,oddball_trial.started,circle_stim.started,key_resp_oddball.started,circle_stim.stopped,oddball_trial.stopped,oddball_loop.key_resp_oddball.keys,oddball_loop.key_resp_oddball.corr,oddball_loop.key_resp_oddball.rt,oddball_loop.key_resp_oddball.duration,participant,Age,Sex,Vision,Handedness,date,expName,expVersion,psychopyVersion,frameRate,expStart,
,,,,,,,,,,,,,,,,,,,,,,,,,,,True,0.023311900004046038,0.034589800001413096,60.00600590000249,,,,,,,,,,,,,,,,,,,,,,,,,,,,,ANR_FS002,23,Prefer not to say,Corrected,Ambidexterous,2026-06-19_11h58.29.334,stroop_oddball,,2026.1.3,59.96501640918934,2026-06-19 11h58.29.872655 +0100,
,,,,,,,,,,,,,,,,,,,,,,,,,,,,,,,60.006089800001064,60.031347399999504,70.00564989999839,,,,,,,,,,,,,,,,,,,,,,,,,,ANR_FS002,23,Prefer not to say,Corrected,Ambidexterous,2026-06-19_11h58.29.334,stroop_oddball,,2026.1.3,59.96501640918934,2026-06-19 11h58.29.872655 +0100,
yellow,green,incongruent,g,STROOP_INCONG,0,0,0,None,0,,,,,,,,0,0,0,40,,,,,70.24706899999728,,,,,,,,,70.23662889999832,70.24706899999728,70.24706899999728,71.24951660000079,71.5053207000019,None,0,71.50543199999811,71.51629430000321,72.50526949999767,,,,,,,,,,,,,,,,ANR_FS002,23,Prefer not to say,Corrected,Ambidexterous,2026-06-19_11h58.29.334,stroop_oddball,,2026.1.3,59.96501640918934,2026-06-19 11h58.29.872655 +0100,
blue,blue,congruent,b,STROOP_CONG,1,1,0,None,0,,,,,,,,0,1,1,95,,,,,72.53115010000329,,,,,,,,,72.50965859999997,72.53115010000329,72.53115010000329,73.53286920000392,74.0051300999985,None,0,74.00524250000308,74.01617100000294,75.00530550000258,,,,,,,,,,,,,,,,ANR_FS002,23,Prefer not to say,Corrected,Ambidexterous,2026-06-19_11h58.29.334,stroop_oddball,,2026.1.3,59.96501640918934,2026-06-19 11h58.29.872655 +0100,
green,yellow,incongruent,y,STROOP_INCONG,2,2,0,None,0,,,,,,,,0,2,2,87,,,,,75.03119529999822,,,,,,,,,75.01086349999969,75.03119529999822,75.03119529999822,76.03257409999787,76.50501570000051,None,0,76.5051323000007,76.51605399999971,77.50402480000048,,,,,,,,,,,,,,,,ANR_FS002,23,Prefer not to say,Corrected,Ambidexterous,2026-06-19_11h58.29.334,stroop_oddball,,2026.1.3,59.96501640918934,2026-06-19 11h58.29.872655 +0100,
green,green,congruent,g,STROOP_CONG,3,3,0,None,0,,,,,,,,0,3,3,20,,,,,77.51518770000257,,,,,,,,,77.50478970000404,77.51518770000257,77.51518770000257,78.51610410000285,79.00494020000042,None,0,79.00505290000001,79.015550600001,80.00485520000075,,,,,,,,,,,,,,,,ANR_FS002,23,Prefer not to say,Corrected,Ambidexterous,2026-06-19_11h58.29.334,stroop_oddball,,2026.1.3,59.96501640918934,2026-06-19 11h58.29.872655 +0100,
yellow,yellow,congruent,y,STROOP_CONG,4,4,0,None,0,,,,,,,,0,4,4,86,,,,,80.03005619999749,,,,,,,,,80.01025269999809,80.03005619999749,80.03005619999749,81.03265529999771,81.50474899999972,None,0,81.50486369999999,81.51531980000436,82.5047926000043,,,,,,,,,,,,,,,,ANR_FS002,23,Prefer not to say,Corrected,Ambidexterous,2026-06-19_11h58.29.334,stroop_oddball,,2026.1.3,59.96501640918934,2026-06-19 11h58.29.872655 +0100,
red,red,congruent,r,STROOP_CONG,5,5,0,None,0,,,,,,,,0,5,5,11,,,,,82.53069369999866,,,,,,,,,82.50933790000272,82.53069369999866,82.53069369999866,83.53244450000057,84.00478250000015,None,0,84.0048988999988,84.01577779999934,85.00464140000258,,,,,,,,,,,,,,,,ANR_FS002,23,Prefer not to say,Corrected,Ambidexterous,2026-06-19_11h58.29.334,stroop_oddball,,2026.1.3,59.96501640918934,2026-06-19 11h58.29.872655 +0100,
red,green,incongruent,g,STROOP_INCONG,6,6,0,b,0,0.32842779999919003,0.1684127999978955,,,,,,0,6,6,36,,,,,85.01521800000046,,,,,,,,,85.0054014999987,85.01521800000046,85.01521800000046,86.01543030000175,86.50451269999758,b,0,86.50464430000284,86.51572090000263,87.50486960000126,0.32842779999919003,0.1684127999978955,,,,,,,,,,,,,,ANR_FS002,23,Prefer not to say,Corrected,Ambidexterous,2026-06-19_11h58.29.334,stroop_oddball,,2026.1.3,59.96501640918934,2026-06-19 11h58.29.872655 +0100,
blue,blue,congruent,b,STROOP_CONG,7,7,0,b,0,1.1886959999974351,0.05480379999789875,,,,,,0,7,7,70,,,,,87.53068489999714,,,,,,,,,87.50931449999916,87.53068489999714,87.53068489999714,88.53199419999873,89.00459489999776,b,0,89.00473020000209,89.01549089999753,90.00451700000121,1.1886959999974351,0.05480379999789875,,,,,,,,,,,,,,ANR_FS002,23,Prefer not to say,Corrected,Ambidexterous,2026-06-19_11h58.29.334,stroop_oddball,,2026.1.3,59.96501640918934,2026-06-19 11h58.29.872655 +0100,
yellow,yellow,congruent,y,STROOP_CONG,8,8,0,y,0,1.193535600003088,0.08255739999731304,,,,,,0,8,8,101,,,,,90.02945180000097,,,,,,,,,90.00993659999949,90.02945180000097,90.02945180000097,91.03202920000331,91.50435730000027,y,0,91.50448860000324,91.51537900000403,92.50426069999958,1.193535600003088,0.08255739999731304,,,,,,,,,,,,,,ANR_FS002,23,Prefer not to say,Corrected,Ambidexterous,2026-06-19_11h58.29.334,stroop_oddball,,2026.1.3,59.96501640918934,2026-06-19 11h58.29.872655 +0100,
red,blue,incongruent,b,STROOP_INCONG,9,9,0,None,0,,,,,,,,0,9,9,24,,,,,92.5304746000038,,,,,,,,,92.50890810000419,92.5304746000038,92.5304746000038,93.53197730000102,94.00435799999832,None,0,94.0044732000024,94.01528720000351,95.00412330000108,,,,,,,,,,,,,,,,ANR_FS002,23,Prefer not to say,Corrected,Ambidexterous,2026-06-19_11h58.29.334,stroop_oddball,,2026.1.3,59.96501640918934,2026-06-19 11h58.29.872655 +0100,
blue,blue,congruent,b,STROOP_CONG,10,10,0,b,0,0.8213790000008885,0.11034520000248449,,,,,,0,10,10,115,,,,,95.03020300000207,,,,,,,,,95.00861720000103,95.03020300000207,95.03020300000207,96.03160970000317,96.50402290000056,b,0,96.50415390000126,96.51519189999817,97.503973400002,0.8213790000008885,0.11034520000248449,,,,,,,,,,,,,,ANR_FS002,23,Prefer not to say,Corrected,Ambidexterous,2026-06-19_11h58.29.334,stroop_oddball,,2026.1.3,59.96501640918934,2026-06-19 11h58.29.872655 +0100,
red,blue,incongruent,b,STROOP_INCONG,11,11,0,None,0,,,,,,,,0,11,11,68,,,,,97.53007629999775,,,,,,,,,97.50838310000108,97.53007629999775,97.53007629999775,98.53170680000039,99.00397270000394,None,0,99.00408569999854,99.01501460000145,100.00430880000204,,,,,,,,,,,,,,,,ANR_FS002,23,Prefer not to say,Corrected,Ambidexterous,2026-06-19_11h58.29.334,stroop_oddball,,2026.1.3,59.96501640918934,2026-06-19 11h58.29.872655 +0100,
blue,blue,congruent,b,STROOP_CONG,12,12,0,None,0,,,,,,,,0,12,12,0,,,,,100.02917200000229,,,,,,,,,100.00919419999991,100.02917200000229,100.02917200000229,101.03167199999734,101.50431050000043,None,0,101.50442430000112,101.5146922999993,102.50290459999815,,,,,,,,,,,,,,,,ANR_FS002,23,Prefer not to say,Corrected,Ambidexterous,2026-06-19_11h58.29.334,stroop_oddball,,2026.1.3,59.96501640918934,2026-06-19 11h58.29.872655 +0100,
blue,yellow,incongruent,y,STROOP_INCONG,13,13,0,None,0,,,,,,,,0,13,13,8,,,,,102.51405070000328,,,,,,,,,102.50366360000044,102.51405070000328,102.51405070000328,103.5148463000005,104.00372600000264,None,0,104.00384789999953,104.01478650000354,105.00381740000012,,,,,,,,,,,,,,,,ANR_FS002,23,Prefer not to say,Corrected,Ambidexterous,2026-06-19_11h58.29.334,stroop_oddball,,2026.1.3,59.96501640918934,2026-06-19 11h58.29.872655 +0100,
blue,blue,congruent,b,STROOP_CONG,14,14,0,None,0,,,,,,,,0,14,14,16,,,,,105.01443889999791,,,,,,,,,105.00455949999741,105.01443889999791,105.01443889999791,106.01446930000384,106.50369900000078,None,0,106.50382499999978,106.51462770000217,107.50275970000075,,,,,,,,,,,,,,,,ANR_FS002,23,Prefer not to say,Corrected,Ambidexterous,2026-06-19_11h58.29.334,stroop_oddball,,2026.1.3,59.96501640918934,2026-06-19 11h58.29.872655 +0100,
red,red,congruent,r,STROOP_CONG,15,15,0,None,0,,,,,,,,0,15,15,46,,,,,107.52907140000025,,,,,,,,,107.5073584999991,107.52907140000025,107.52907140000025,108.53123729999788,109.00350230000186,None,0,109.00361590000102,109.01466710000386,110.00356450000254,,,,,,,,,,,,,,,,ANR_FS002,23,Prefer not to say,Corrected,Ambidexterous,2026-06-19_11h58.29.334,stroop_oddball,,2026.1.3,59.96501640918934,2026-06-19 11h58.29.872655 +0100,
red,red,congruent,r,STROOP_CONG,16,16,0,None,0,,,,,,,,0,16,16,63,,,,,110.01432699999714,,,,,,,,,110.00433899999916,110.01432699999714,110.01432699999714,111.01454119999835,111.50338210000336,None,0,111.50350459999754,111.51450019999902,112.5035085999989,,,,,,,,,,,,,,,,ANR_FS002,23,Prefer not to say,Corrected,Ambidexterous,2026-06-19_11h58.29.334,stroop_oddball,,2026.1.3,59.96501640918934,2026-06-19 11h58.29.872655 +0100,
yellow,yellow,congruent,y,STROOP_CONG,17,17,0,None,0,,,,,,,,0,17,17,51,,,,,112.52937419999944,,,,,,,,,112.50892620000377,112.52937419999944,112.52937419999944,113.53097669999988,114.00345540000126,None,0,114.0035715999984,114.01412259999779,115.00229039999977,,,,,,,,,,,,,,,,ANR_FS002,23,Prefer not to say,Corrected,Ambidexterous,2026-06-19_11h58.29.334,stroop_oddball,,2026.1.3,59.96501640918934,2026-06-19 11h58.29.872655 +0100,
red,blue,incongruent,b,STROOP_INCONG,18,18,0,None,0,,,,,,,,0,18,18,109,,,,,115.02841130000161,,,,,,,,,115.00695160000032,115.02841130000161,115.02841130000161,116.03002389999892,116.5036534000028,None,0,116.50376479999977,116.51420910000161,117.50328119999904,,,,,,,,,,,,,,,,ANR_FS002,23,Prefer not to say,Corrected,Ambidexterous,2026-06-19_11h58.29.334,stroop_oddball,,2026.1.3,59.96501640918934,2026-06-19 11h58.29.872655 +0100,
red,red,congruent,r,STROOP_CONG,19,19,0,None,0,,,,,,,,0,19,19,106,,,,,117.51411730000109,,,,,,,,,117.50403830000141,117.51411730000109,117.51411730000109,118.51354900000297,119.00288870000077,None,0,119.00300479999714,119.013890000002,120.00318030000199,,,,,,,,,,,,,,,,ANR_FS002,23,Prefer not to say,Corrected,Ambidexterous,2026-06-19_11h58.29.334,stroop_oddball,,2026.1.3,59.96501640918934,2026-06-19 11h58.29.872655 +0100,
yellow,green,incongruent,g,STROOP_INCONG,20,20,0,None,0,,,,,,,,0,20,20,69,,,,,120.02909350000118,,,,,,,,,120.0084932000027,120.02909350000118,120.02909350000118,121.03061609999713,121.50283889999992,None,0,121.50295149999874,121.51400730000023,122.50265870000294,,,,,,,,,,,,,,,,ANR_FS002,23,Prefer not to say,Corrected,Ambidexterous,2026-06-19_11h58.29.334,stroop_oddball,,2026.1.3,59.96501640918934,2026-06-19 11h58.29.872655 +0100,
blue,blue,congruent,b,STROOP_CONG,21,21,0,None,0,,,,,,,,0,21,21,30,,,,,122.52923620000365,,,,,,,,,122.5069175000026,122.52923620000365,122.52923620000365,123.53048410000338,124.0029646000039,None,0,124.00307969999994,124.01385119999759,125.00202310000168,,,,,,,,,,,,,,,,ANR_FS002,23,Prefer not to say,Corrected,Ambidexterous,2026-06-19_11h58.29.334,stroop_oddball,,2026.1.3,59.96501640918934,2026-06-19 11h58.29.872655 +0100,
green,green,congruent,g,STROOP_CONG,22,22,0,None,0,,,,,,,,0,22,22,21,,,,,125.02797049999936,,,,,,,,,125.00716909999755,125.02797049999936,125.02797049999936,126.03031970000302,126.50279260000389,None,0,126.50290739999764,126.51370080000197,127.50268440000218,,,,,,,,,,,,,,,,ANR_FS002,23,Prefer not to say,Corrected,Ambidexterous,2026-06-19_11h58.29.334,stroop_oddball,,2026.1.3,59.96501640918934,2026-06-19 11h58.29.872655 +0100,
green,green,congruent,g,STROOP_CONG,23,23,0,None,0,,,,,,,,0,23,23,34,,,,,127.51374600000418,,,,,,,,,127.50341509999998,127.51374600000418,127.51374600000418,128.5136752000035,129.00315840000258,None,0,129.0032704000041,129.0136921000012,130.00271529999736,,,,,,,,,,,,,,,,ANR_FS002,23,Prefer not to say,Corrected,Ambidexterous,2026-06-19_11h58.29.334,stroop_oddball,,2026.1.3,59.96501640918934,2026-06-19 11h58.29.872655 +0100,
red,yellow,incongruent,y,STROOP_INCONG,24,24,0,None,0,,,,,,,,0,24,24,83,,,,,130.02764130000287,,,,,,,,,130.00725090000196,130.02764130000287,130.02764130000287,131.03013450000435,131.5024964999975,None,0,131.50261170000158,131.5135353000005,132.50222329999815,,,,,,,,,,,,,,,,ANR_FS002,23,Prefer not to say,Corrected,Ambidexterous,2026-06-19_11h58.29.334,stroop_oddball,,2026.1.3,59.96501640918934,2026-06-19 11h58.29.872655 +0100,
red,red,congruent,r,STROOP_CONG,25,25,0,None,0,,,,,,,,0,25,25,47,,,,,132.51321720000124,,,,,,,,,132.50297480000154,132.51321720000124,132.51321720000124,133.5133726999993,134.00240219999978,None,0,134.00251720000233,134.01341700000194,135.00268669999787,,,,,,,,,,,,,,,,ANR_FS002,23,Prefer not to say,Corrected,Ambidexterous,2026-06-19_11h58.29.334,stroop_oddball,,2026.1.3,59.96501640918934,2026-06-19 11h58.29.872655 +0100,
green,yellow,incongruent,y,STROOP_INCONG,26,26,0,None,0,,,,,,,,0,26,26,44,,,,,135.02846190000128,,,,,,,,,135.00775360000262,135.02846190000128,135.02846190000128,136.02976540000236,136.50236840000434,None,0,136.50248460000148,136.51316229999793,137.50232040000265,,,,,,,,,,,,,,,,ANR_FS002,23,Prefer not to say,Corrected,Ambidexterous,2026-06-19_11h58.29.334,stroop_oddball,,2026.1.3,59.96501640918934,2026-06-19 11h58.29.872655 +0100,
red,red,congruent,r,STROOP_CONG,27,27,0,None,0,,,,,,,,0,27,27,1,,,,,137.52820909999718,,,,,,,,,137.50662680000096,137.52820909999718,137.52820909999718,138.52889580000192,139.00211529999797,None,0,139.00223650000407,139.01315199999954,140.00204759999906,,,,,,,,,,,,,,,,ANR_FS002,23,Prefer not to say,Corrected,Ambidexterous,2026-06-19_11h58.29.334,stroop_oddball,,2026.1.3,59.96501640918934,2026-06-19 11h58.29.872655 +0100,
green,yellow,incongruent,y,STROOP_INCONG,28,28,0,None,0,,,,,,,,0,28,28,112,,,,,140.02809530000377,,,,,,,,,140.0070556999999,140.02809530000377,140.02809530000377,141.02953539999726,141.5019969999994,None,0,141.50211300000228,141.51308830000198,142.50197959999787,,,,,,,,,,,,,,,,ANR_FS002,23,Prefer not to say,Corrected,Ambidexterous,2026-06-19_11h58.29.334,stroop_oddball,,2026.1.3,59.96501640918934,2026-06-19 11h58.29.872655 +0100,
blue,yellow,incongruent,y,STROOP_INCONG,29,29,0,None,0,,,,,,,,0,29,29,22,,,,,142.52805939999962,,,,,,,,,142.506550099999,142.52805939999962,142.52805939999962,143.52945360000012,144.00193469999795,None,0,144.0020472000033,144.01286670000263,145.0018784999993,,,,,,,,,,,,,,,,ANR_FS002,23,Prefer not to say,Corrected,Ambidexterous,2026-06-19_11h58.29.334,stroop_oddball,,2026.1.3,59.96501640918934,2026-06-19 11h58.29.872655 +0100,
blue,green,incongruent,g,STROOP_INCONG,30,30,0,None,0,,,,,,,,0,30,30,107,,,,,145.01265640000202,,,,,,,,,145.00262820000353,145.01265640000202,145.01265640000202,146.01261879999947,146.50173170000198,None,0,146.50184910000098,146.51275449999957,147.50167019999935,,,,,,,,,,,,,,,,ANR_FS002,23,Prefer not to say,Corrected,Ambidexterous,2026-06-19_11h58.29.334,stroop_oddball,,2026.1.3,59.96501640918934,2026-06-19 11h58.29.872655 +0100,
green,green,congruent,g,STROOP_CONG,31,31,0,None,0,,,,,,,,0,31,31,2,,,,,147.52792780000163,,,,,,,,,147.50685350000276,147.52792780000163,147.52792780000163,148.5293313000002,149.00162439999986,None,0,149.00173989999894,149.01244600000064,150.00179030000436,,,,,,,,,,,,,,,,ANR_FS002,23,Prefer not to say,Corrected,Ambidexterous,2026-06-19_11h58.29.334,stroop_oddball,,2026.1.3,59.96501640918934,2026-06-19 11h58.29.872655 +0100,
yellow,blue,incongruent,b,STROOP_INCONG,32,32,0,None,0,,,,,,,,0,32,32,10,,,,,150.02766739999788,,,,,,,,,150.0070132000037,150.02766739999788,150.02766739999788,151.02917359999992,151.50158770000417,None,0,151.50170490000164,151.51249529999768,152.5009790999975,,,,,,,,,,,,,,,,ANR_FS002,23,Prefer not to say,Corrected,Ambidexterous,2026-06-19_11h58.29.334,stroop_oddball,,2026.1.3,59.96501640918934,2026-06-19 11h58.29.872655 +0100,
yellow,yellow,congruent,y,STROOP_CONG,33,33,0,None,0,,,,,,,,0,33,33,15,,,,,152.51204169999983,,,,,,,,,152.50173820000055,152.51204169999983,152.51204169999983,153.5125085000036,154.00153039999714,None,0,154.00164750000113,154.01255110000056,155.00137240000186,,,,,,,,,,,,,,,,ANR_FS002,23,Prefer not to say,Corrected,Ambidexterous,2026-06-19_11h58.29.334,stroop_oddball,,2026.1.3,59.96501640918934,2026-06-19 11h58.29.872655 +0100,
green,red,incongruent,r,STROOP_INCONG,34,34,0,None,0,,,,,,,,0,34,34,9,,,,,155.02742130000115,,,,,,,,,155.00636459999805,155.02742130000115,155.02742130000115,156.0446243999977,156.50151480000204,None,0,156.50163189999876,156.51173079999717,157.50147319999814,,,,,,,,,,,,,,,,ANR_FS002,23,Prefer not to say,Corrected,Ambidexterous,2026-06-19_11h58.29.334,stroop_oddball,,2026.1.3,59.96501640918934,2026-06-19 11h58.29.872655 +0100,
green,blue,incongruent,b,STROOP_INCONG,35,35,0,None,0,,,,,,,,0,35,35,28,,,,,157.51239680000435,,,,,,,,,157.50222909999866,157.51239680000435,157.51239680000435,158.51199890000134,159.00135949999822,None,0,159.00147309999738,159.01217349999934,160.00130920000083,,,,,,,,,,,,,,,,ANR_FS002,23,Prefer not to say,Corrected,Ambidexterous,2026-06-19_11h58.29.334,stroop_oddball,,2026.1.3,59.96501640918934,2026-06-19 11h58.29.872655 +0100,
green,green,congruent,g,STROOP_CONG,36,36,0,None,0,,,,,,,,0,36,36,13,,,,,160.012180800004,,,,,,,,,160.00206810000236,160.012180800004,160.012180800004,161.0120406999995,161.5013678000032,None,0,161.5014833000023,161.51217480000196,162.50120269999752,,,,,,,,,,,,,,,,ANR_FS002,23,Prefer not to say,Corrected,Ambidexterous,2026-06-19_11h58.29.334,stroop_oddball,,2026.1.3,59.96501640918934,2026-06-19 11h58.29.872655 +0100,
blue,green,incongruent,g,STROOP_INCONG,37,37,0,None,0,,,,,,,,0,37,37,108,,,,,162.52719049999723,,,,,,,,,162.5056917000038,162.52719049999723,162.52719049999723,163.52849219999916,164.0011530999982,None,0,164.00126689999888,164.01207240000076,165.00093980000383,,,,,,,,,,,,,,,,ANR_FS002,23,Prefer not to say,Corrected,Ambidexterous,2026-06-19_11h58.29.334,stroop_oddball,,2026.1.3,59.96501640918934,2026-06-19 11h58.29.872655 +0100,
green,green,congruent,g,STROOP_CONG,38,38,0,None,0,,,,,,,,0,38,38,18,,,,,165.02626579999924,,,,,,,,,165.00606800000241,165.02626579999924,165.02626579999924,166.02836090000346,166.5010975999976,None,0,166.50121349999972,166.51187490000302,167.50109930000326,,,,,,,,,,,,,,,,ANR_FS002,23,Prefer not to say,Corrected,Ambidexterous,2026-06-19_11h58.29.334,stroop_oddball,,2026.1.3,59.96501640918934,2026-06-19 11h58.29.872655 +0100,
green,green,congruent,g,STROOP_CONG,39,39,0,None,0,,,,,,,,0,39,39,3,,,,,167.51197330000286,,,,,,,,,167.5018532000031,167.51197330000286,167.51197330000286,168.51156060000358,169.00050010000268,None,0,169.00061350000033,169.01171330000216,170.00062949999847,,,,,,,,,,,,,,,,ANR_FS002,23,Prefer not to say,Corrected,Ambidexterous,2026-06-19_11h58.29.334,stroop_oddball,,2026.1.3,59.96501640918934,2026-06-19 11h58.29.872655 +0100,
blue,yellow,incongruent,y,STROOP_INCONG,40,40,0,None,0,,,,,,,,0,40,40,80,,,,,170.0256456999996,,,,,,,,,170.0051026000001,170.0256456999996,170.0256456999996,171.0281404999987,171.50114700000267,None,0,171.5012629999983,171.51171189999877,172.49999119999848,,,172.51078969999799,,,,,,,,,,,,,ANR_FS002,23,Prefer not to say,Corrected,Ambidexterous,2026-06-19_11h58.29.334,stroop_oddball,,2026.1.3,59.96501640918934,2026-06-19 11h58.29.872655 +0100,
blue,blue,congruent,b,STROOP_CONG,41,41,0,None,0,,,,,,,,0,41,41,85,,,,,172.51078969999799,,,,,,,,,172.50071939999907,172.51078969999799,172.51078969999799,173.5115158999979,174.00045859999955,None,0,174.00057319999905,174.01150770000095,175.00071050000406,,,,,,,,,,,,,,,,ANR_FS002,23,Prefer not to say,Corrected,Ambidexterous,2026-06-19_11h58.29.334,stroop_oddball,,2026.1.3,59.96501640918934,2026-06-19 11h58.29.872655 +0100,
blue,blue,congruent,b,STROOP_CONG,42,42,0,None,0,,,,,,,,0,42,42,91,,,,,175.01157429999876,,,,,,,,,175.00146449999738,175.01157429999876,175.01157429999876,176.01093519999995,176.5009491000019,None,0,176.50106550000055,176.5114598,177.50022970000282,,,,,,,,,,,,,,,,ANR_FS002,23,Prefer not to say,Corrected,Ambidexterous,2026-06-19_11h58.29.334,stroop_oddball,,2026.1.3,59.96501640918934,2026-06-19 11h58.29.872655 +0100,
green,blue,incongruent,b,STROOP_INCONG,43,43,0,None,0,,,,,,,,0,43,43,43,,,,,177.526374699999,,,,,,,,,177.5052366000018,177.526374699999,177.526374699999,178.527917899999,179.0002530999991,None,0,179.00036810000165,179.01139030000195,180.00012450000213,,,,,,,,,,,,,,,,ANR_FS002,23,Prefer not to say,Corrected,Ambidexterous,2026-06-19_11h58.29.334,stroop_oddball,,2026.1.3,59.96501640918934,2026-06-19 11h58.29.872655 +0100,
yellow,green,incongruent,g,STROOP_INCONG,44,44,0,None,0,,,,,,,,0,44,44,35,,,,,180.0262251000022,,,,,,,,,180.00519670000358,180.0262251000022,180.0262251000022,181.0276212000026,181.50028710000333,None,0,181.50040389999776,181.51116919999913,182.49950530000206,,,182.52530760000082,,,,,,,,,,,,,ANR_FS002,23,Prefer not to say,Corrected,Ambidexterous,2026-06-19_11h58.29.334,stroop_oddball,,2026.1.3,59.96501640918934,2026-06-19 11h58.29.872655 +0100,
blue,blue,congruent,b,STROOP_CONG,45,45,0,None,0,,,,,,,,0,45,45,58,,,,,182.52530760000082,,,,,,,,,182.5038143999991,182.52530760000082,182.52530760000082,183.5275421999977,184.00023440000223,None,0,184.00034640000376,184.01099409999733,185.0002209000013,,,,,,,,,,,,,,,,ANR_FS002,23,Prefer not to say,Corrected,Ambidexterous,2026-06-19_11h58.29.334,stroop_oddball,,2026.1.3,59.96501640918934,2026-06-19 11h58.29.872655 +0100,
yellow,blue,incongruent,b,STROOP_INCONG,46,46,0,None,0,,,,,,,,0,46,46,75,,,,,185.02599590000318,,,,,,,,,185.0052302999975,185.02599590000318,185.02599590000318,186.02744630000234,186.50010330000077,None,0,186.5002214999986,186.51094240000384,187.51688360000117,,,,,,,,,,,,,,,,ANR_FS002,23,Prefer not to say,Corrected,Ambidexterous,2026-06-19_11h58.29.334,stroop_oddball,,2026.1.3,59.96501640918934,2026-06-19 11h58.29.872655 +0100,
green,green,congruent,g,STROOP_CONG,47,47,0,None,0,,,,,,,,0,47,47,119,,,,,187.5432673000032,,,,,,,,,187.5220907000039,187.5432673000032,187.5432673000032,188.54409170000145,189.01660119999724,None,0,189.0167242000025,189.02738350000436,190.0164478000006,,,,,,,,,,,,,,,,ANR_FS002,23,Prefer not to say,Corrected,Ambidexterous,2026-06-19_11h58.29.334,stroop_oddball,,2026.1.3,59.96501640918934,2026-06-19 11h58.29.872655 +0100,
blue,blue,congruent,b,STROOP_CONG,48,48,0,None,0,,,,,,,,0,48,48,27,,,,,190.0423277000009,,,,,,,,,190.0207173000017,190.0423277000009,190.0423277000009,191.0440019000016,191.51583019999816,None,0,191.51594769999792,191.5273410000009,192.51649600000383,,,,,,,,,,,,,,,,ANR_FS002,23,Prefer not to say,Corrected,Ambidexterous,2026-06-19_11h58.29.334,stroop_oddball,,2026.1.3,59.96501640918934,2026-06-19 11h58.29.872655 +0100,
red,yellow,incongruent,y,STROOP_INCONG,49,49,0,None,0,,,,,,,,0,49,49,55,,,,,192.5416325000042,,,,,,,,,192.52133879999747,192.5416325000042,192.5416325000042,193.54314000000159,194.01691749999736,None,0,194.01703650000127,194.02661649999936,195.0161894999983,,,,,,,,,,,,,,,,ANR_FS002,23,Prefer not to say,Corrected,Ambidexterous,2026-06-19_11h58.29.334,stroop_oddball,,2026.1.3,59.96501640918934,2026-06-19 11h58.29.872655 +0100,
blue,red,incongruent,r,STROOP_INCONG,50,50,0,None,0,,,,,,,,0,50,50,110,,,,,195.04228339999827,,,,,,,,,195.0205965999994,195.04228339999827,195.04228339999827,196.0435623000012,196.51630060000025,None,0,196.51641609999933,196.52693140000338,197.51607309999963,,,,,,,,,,,,,,,,ANR_FS002,23,Prefer not to say,Corrected,Ambidexterous,2026-06-19_11h58.29.334,stroop_oddball,,2026.1.3,59.96501640918934,2026-06-19 11h58.29.872655 +0100,
yellow,red,incongruent,r,STROOP_INCONG,51,51,0,None,0,,,,,,,,0,51,51,92,,,,,197.54206400000112,,,,,,,,,197.52098670000123,197.54206400000112,197.54206400000112,198.54347609999968,199.01585820000037,None,0,199.0159891000003,199.02656859999843,200.01615460000176,,,,,,,,,,,,,,,,ANR_FS002,23,Prefer not to say,Corrected,Ambidexterous,2026-06-19_11h58.29.334,stroop_oddball,,2026.1.3,59.96501640918934,2026-06-19 11h58.29.872655 +0100,
green,green,congruent,g,STROOP_CONG,52,52,0,None,0,,,,,,,,0,52,52,73,,,,,200.0421101000029,,,,,,,,,200.0220130000016,200.0421101000029,200.0421101000029,201.04354579999927,201.51616739999736,None,0,201.5162829999972,201.52682020000066,202.51574429999891,,,,,,,,,,,,,,,,ANR_FS002,23,Prefer not to say,Corrected,Ambidexterous,2026-06-19_11h58.29.334,stroop_oddball,,2026.1.3,59.96501640918934,2026-06-19 11h58.29.872655 +0100,
green,blue,incongruent,b,STROOP_INCONG,53,53,0,None,0,,,,,,,,0,53,53,17,,,,,202.5265775000007,,,,,,,,,202.51651280000078,202.5265775000007,202.5265775000007,203.52605439999752,204.0148302000016,None,0,204.0149442999973,204.02653570000257,205.01578090000112,,,,,,,,,,,,,,,,ANR_FS002,23,Prefer not to say,Corrected,Ambidexterous,2026-06-19_11h58.29.334,stroop_oddball,,2026.1.3,59.96501640918934,2026-06-19 11h58.29.872655 +0100,
red,red,congruent,r,STROOP_CONG,54,54,0,None,0,,,,,,,,0,54,54,116,,,,,205.04172790000302,,,,,,,,,205.02033200000005,205.04172790000302,205.04172790000302,206.04318760000024,206.51582410000265,None,0,206.5159580000036,206.52651640000113,207.51541400000133,,,,,,,,,,,,,,,,ANR_FS002,23,Prefer not to say,Corrected,Ambidexterous,2026-06-19_11h58.29.334,stroop_oddball,,2026.1.3,59.96501640918934,2026-06-19 11h58.29.872655 +0100,
yellow,yellow,congruent,y,STROOP_CONG,55,55,0,None,0,,,,,,,,0,55,55,117,,,,,207.54152389999945,,,,,,,,,207.52096030000394,207.54152389999945,207.54152389999945,208.54320780000126,209.01545800000167,None,0,209.01557270000194,209.02646800000366,210.01542119999795,,,,,,,,,,,,,,,,ANR_FS002,23,Prefer not to say,Corrected,Ambidexterous,2026-06-19_11h58.29.334,stroop_oddball,,2026.1.3,59.96501640918934,2026-06-19 11h58.29.872655 +0100,
green,blue,incongruent,b,STROOP_INCONG,56,56,0,None,0,,,,,,,,0,56,56,48,,,,,210.04157069999928,,,,,,,,,210.02067199999874,210.04157069999928,210.04157069999928,211.0431208000009,211.51528849999886,None,0,211.51540340000065,211.52623570000287,212.51528430000326,,,,,,,,,,,,,,,,ANR_FS002,23,Prefer not to say,Corrected,Ambidexterous,2026-06-19_11h58.29.334,stroop_oddball,,2026.1.3,59.96501640918934,2026-06-19 11h58.29.872655 +0100,
blue,yellow,incongruent,y,STROOP_INCONG,57,57,0,None,0,,,,,,,,0,57,57,23,,,,,212.54022319999785,,,,,,,,,212.51964550000412,212.54022319999785,212.54022319999785,213.54292050000367,214.01526639999793,None,0,214.01538119999896,214.02629039999738,215.015204000003,,,,,,,,,,,,,,,,ANR_FS002,23,Prefer not to say,Corrected,Ambidexterous,2026-06-19_11h58.29.334,stroop_oddball,,2026.1.3,59.96501640918934,2026-06-19 11h58.29.872655 +0100,
red,red,congruent,r,STROOP_CONG,58,58,0,None,0,,,,,,,,0,58,58,29,,,,,215.04122810000263,,,,,,,,,215.02215860000433,215.04122810000263,215.04122810000263,216.04206330000306,216.51522970000224,None,0,216.51534650000394,216.52612149999914,217.51522600000317,,,,,,,,,,,,,,,,ANR_FS002,23,Prefer not to say,Corrected,Ambidexterous,2026-06-19_11h58.29.334,stroop_oddball,,2026.1.3,59.96501640918934,2026-06-19 11h58.29.872655 +0100,
red,green,incongruent,g,STROOP_INCONG,59,59,0,None,0,,,,,,,,0,59,59,113,,,,,217.52621070000168,,,,,,,,,217.5159891000003,217.52621070000168,217.52621070000168,218.52612650000083,219.01511120000214,None,0,219.01522560000012,219.02604520000023,220.01500110000052,,,,,,,,,,,,,,,,ANR_FS002,23,Prefer not to say,Corrected,Ambidexterous,2026-06-19_11h58.29.334,stroop_oddball,,2026.1.3,59.96501640918934,2026-06-19 11h58.29.872655 +0100,
yellow,blue,incongruent,b,STROOP_INCONG,60,60,0,None,0,,,,,,,,0,60,60,32,,,,,220.0410828000022,,,,,,,,,220.02005929999723,220.0410828000022,220.0410828000022,221.0418462000016,221.5149528999973,None,0,221.51506659999723,221.52599629999895,222.5148341000022,,,,,,,,,,,,,,,,ANR_FS002,23,Prefer not to say,Corrected,Ambidexterous,2026-06-19_11h58.29.334,stroop_oddball,,2026.1.3,59.96501640918934,2026-06-19 11h58.29.872655 +0100,
green,green,congruent,g,STROOP_CONG,61,61,0,None,0,,,,,,,,0,61,61,78,,,,,222.54092160000437,,,,,,,,,222.52050079999754,222.54092160000437,222.54092160000437,223.54256010000245,224.0150894000035,None,0,224.01519879999978,224.02568790000078,225.01476659999753,,,,,,,,,,,,,,,,ANR_FS002,23,Prefer not to say,Corrected,Ambidexterous,2026-06-19_11h58.29.334,stroop_oddball,,2026.1.3,59.96501640918934,2026-06-19 11h58.29.872655 +0100,
red,blue,incongruent,b,STROOP_INCONG,62,62,0,None,0,,,,,,,,0,62,62,93,,,,,225.04082500000368,,,,,,,,,225.0192113000012,225.04082500000368,225.04082500000368,226.04250440000033,226.51463460000377,None,0,226.5147455999977,226.525684799999,227.51468600000226,,,,,,,,,,,,,,,,ANR_FS002,23,Prefer not to say,Corrected,Ambidexterous,2026-06-19_11h58.29.334,stroop_oddball,,2026.1.3,59.96501640918934,2026-06-19 11h58.29.872655 +0100,
red,red,congruent,r,STROOP_CONG,63,63,0,None,0,,,,,,,,0,63,63,98,,,,,227.52562249999755,,,,,,,,,227.5154410000032,227.52562249999755,227.52562249999755,228.5254120000027,229.01449850000063,None,0,229.01461140000174,229.025544600001,230.0135023000039,,,,,,,,,,,,,,,,ANR_FS002,23,Prefer not to say,Corrected,Ambidexterous,2026-06-19_11h58.29.334,stroop_oddball,,2026.1.3,59.96501640918934,2026-06-19 11h58.29.872655 +0100,
red,blue,incongruent,b,STROOP_INCONG,64,64,0,None,0,,,,,,,,0,64,64,104,,,,,230.02468899999803,,,,,,,,,230.0142463000011,230.02468899999803,230.02468899999803,231.0254436000032,231.514345399999,None,0,231.51445930000045,231.52547420000337,232.51428660000238,,,,,,,,,,,,,,,,ANR_FS002,23,Prefer not to say,Corrected,Ambidexterous,2026-06-19_11h58.29.334,stroop_oddball,,2026.1.3,59.96501640918934,2026-06-19 11h58.29.872655 +0100,
yellow,blue,incongruent,b,STROOP_INCONG,65,65,0,None,0,,,,,,,,0,65,65,81,,,,,232.54034230000252,,,,,,,,,232.51966209999955,232.54034230000252,232.54034230000252,233.54201070000272,234.01443260000087,None,0,234.0145502000014,234.02533419999963,235.0142510000005,,,,,,,,,,,,,,,,ANR_FS002,23,Prefer not to say,Corrected,Ambidexterous,2026-06-19_11h58.29.334,stroop_oddball,,2026.1.3,59.96501640918934,2026-06-19 11h58.29.872655 +0100,
blue,red,incongruent,r,STROOP_INCONG,66,66,0,None,0,,,,,,,,0,66,66,38,,,,,235.04038669999863,,,,,,,,,235.01870900000358,235.04038669999863,235.04038669999863,236.04108570000244,236.5143457000013,None,0,236.5145027000035,236.52499750000425,237.51423950000026,,,,,,,,,,,,,,,,ANR_FS002,23,Prefer not to say,Corrected,Ambidexterous,2026-06-19_11h58.29.334,stroop_oddball,,2026.1.3,59.96501640918934,2026-06-19 11h58.29.872655 +0100,
yellow,yellow,congruent,y,STROOP_CONG,67,67,0,None,0,,,,,,,,0,67,67,84,,,,,237.54017410000233,,,,,,,,,237.51989190000313,237.54017410000233,237.54017410000233,238.54176220000227,239.0141094999999,None,0,239.01422250000178,239.0250367999979,240.01403890000074,,,,,,,,,,,,,,,,ANR_FS002,23,Prefer not to say,Corrected,Ambidexterous,2026-06-19_11h58.29.334,stroop_oddball,,2026.1.3,59.96501640918934,2026-06-19 11h58.29.872655 +0100,
blue,blue,congruent,b,STROOP_CONG,68,68,0,None,0,,,,,,,,0,68,68,62,,,,,240.04010540000309,,,,,,,,,240.01839669999754,240.04010540000309,240.04010540000309,241.0414321999997,241.51376560000062,None,0,241.51387980000436,241.524499799998,242.51407140000083,,,,,,,,,,,,,,,,ANR_FS002,23,Prefer not to say,Corrected,Ambidexterous,2026-06-19_11h58.29.334,stroop_oddball,,2026.1.3,59.96501640918934,2026-06-19 11h58.29.872655 +0100,
green,yellow,incongruent,y,STROOP_INCONG,69,69,0,None,0,,,,,,,,0,69,69,57,,,,,242.5400598999986,,,,,,,,,242.51943269999902,242.5400598999986,242.5400598999986,243.5415393000003,244.01374020000367,None,0,244.01385719999962,244.02467669999896,245.01294210000196,,,,,,,,,,,,,,,,ANR_FS002,23,Prefer not to say,Corrected,Ambidexterous,2026-06-19_11h58.29.334,stroop_oddball,,2026.1.3,59.96501640918934,2026-06-19 11h58.29.872655 +0100,
green,red,incongruent,r,STROOP_INCONG,70,70,0,None,0,,,,,,,,0,70,70,7,,,,,245.02380400000402,,,,,,,,,245.01369970000087,245.02380400000402,245.02380400000402,246.02465289999964,246.51377130000037,None,0,246.51388790000055,246.52468930000032,247.51345240000228,,,,,,,,,,,,,,,,ANR_FS002,23,Prefer not to say,Corrected,Ambidexterous,2026-06-19_11h58.29.334,stroop_oddball,,2026.1.3,59.96501640918934,2026-06-19 11h58.29.872655 +0100,
red,yellow,incongruent,y,STROOP_INCONG,71,71,0,None,0,,,,,,,,0,71,71,114,,,,,247.53980379999848,,,,,,,,,247.5177193999989,247.53980379999848,247.53980379999848,248.54133860000002,249.01386910000292,None,0,249.0139887999976,249.0246688000043,250.01345759999822,,,,,,,,,,,,,,,,ANR_FS002,23,Prefer not to say,Corrected,Ambidexterous,2026-06-19_11h58.29.334,stroop_oddball,,2026.1.3,59.96501640918934,2026-06-19 11h58.29.872655 +0100,
red,green,incongruent,g,STROOP_INCONG,72,72,0,None,0,,,,,,,,0,72,72,77,,,,,250.0241395999983,,,,,,,,,250.01421280000068,250.0241395999983,250.0241395999983,251.02450220000173,251.51345520000177,None,0,251.5135706000001,251.52450520000275,252.5135831000007,,,,,,,,,,,,,,,,ANR_FS002,23,Prefer not to say,Corrected,Ambidexterous,2026-06-19_11h58.29.334,stroop_oddball,,2026.1.3,59.96501640918934,2026-06-19 11h58.29.872655 +0100,
blue,green,incongruent,g,STROOP_INCONG,73,73,0,None,0,,,,,,,,0,73,73,45,,,,,252.53977840000152,,,,,,,,,252.51842330000363,252.53977840000152,252.53977840000152,253.54113700000016,254.0133468999993,None,0,254.0134642999983,254.024382100004,255.01325650000217,,,,,,,,,,,,,,,,ANR_FS002,23,Prefer not to say,Corrected,Ambidexterous,2026-06-19_11h58.29.334,stroop_oddball,,2026.1.3,59.96501640918934,2026-06-19 11h58.29.872655 +0100,
blue,blue,congruent,b,STROOP_CONG,74,74,0,None,0,,,,,,,,0,74,74,14,,,,,255.02439220000088,,,,,,,,,255.0139904000025,255.02439220000088,255.02439220000088,256.02390970000124,256.5133724999978,None,0,256.51348809999763,256.52426769999875,257.5133752000038,,,,,,,,,,,,,,,,ANR_FS002,23,Prefer not to say,Corrected,Ambidexterous,2026-06-19_11h58.29.334,stroop_oddball,,2026.1.3,59.96501640918934,2026-06-19 11h58.29.872655 +0100,
green,yellow,incongruent,y,STROOP_INCONG,75,75,0,None,0,,,,,,,,0,75,75,42,,,,,257.5392528000011,,,,,,,,,257.518364399999,257.5392528000011,257.5392528000011,258.5405374000038,259.0131323000023,None,0,259.0132439000008,259.0241625999988,260.01307559999987,,,,,,,,,,,,,,,,ANR_FS002,23,Prefer not to say,Corrected,Ambidexterous,2026-06-19_11h58.29.334,stroop_oddball,,2026.1.3,59.96501640918934,2026-06-19 11h58.29.872655 +0100,
blue,red,incongruent,r,STROOP_INCONG,76,76,0,None,0,,,,,,,,0,76,76,49,,,,,260.0390960000004,,,,,,,,,260.01784639999823,260.0390960000004,260.0390960000004,261.04023060000327,261.51311949999945,None,0,261.51323299999785,261.52406209999754,262.5131018000029,,,,,,,,,,,,,,,,ANR_FS002,23,Prefer not to say,Corrected,Ambidexterous,2026-06-19_11h58.29.334,stroop_oddball,,2026.1.3,59.96501640918934,2026-06-19 11h58.29.872655 +0100,
red,red,congruent,r,STROOP_CONG,77,77,0,None,0,,,,,,,,0,77,77,4,,,,,262.53909009999916,,,,,,,,,262.5173455999975,262.53909009999916,262.53909009999916,263.54066169999714,264.01298540000425,None,0,264.01310029999877,264.0240023000006,265.012788,,,,,,,,,,,,,,,,ANR_FS002,23,Prefer not to say,Corrected,Ambidexterous,2026-06-19_11h58.29.334,stroop_oddball,,2026.1.3,59.96501640918934,2026-06-19 11h58.29.872655 +0100,
yellow,yellow,congruent,y,STROOP_CONG,78,78,0,None,0,,,,,,,,0,78,78,59,,,,,265.03882229999726,,,,,,,,,265.0182494999972,265.03882229999726,265.03882229999726,266.0402966000038,266.5129292999991,None,0,266.51304489999893,266.5238143000024,267.5127499000009,,,,,,,,,,,,,,,,ANR_FS002,23,Prefer not to say,Corrected,Ambidexterous,2026-06-19_11h58.29.334,stroop_oddball,,2026.1.3,59.96501640918934,2026-06-19 11h58.29.872655 +0100,
green,green,congruent,g,STROOP_CONG,79,79,0,None,0,,,,,,,,0,79,79,74,,,,,267.53873510000267,,,,,,,,,267.51842439999746,267.53873510000267,267.53873510000267,268.5399058999974,269.01283780000085,None,0,269.0129543000003,269.0235231999977,270.0128827000008,,,,,,,,,,,,,,,,ANR_FS002,23,Prefer not to say,Corrected,Ambidexterous,2026-06-19_11h58.29.334,stroop_oddball,,2026.1.3,59.96501640918934,2026-06-19 11h58.29.872655 +0100,
green,red,incongruent,r,STROOP_INCONG,80,80,0,None,0,,,,,,,,0,80,80,71,,,,,270.0236010000008,,,,,,,,,270.01364840000315,270.0236010000008,270.0236010000008,271.02283049999824,271.5116543999975,None,0,271.5117776000043,271.5228513000038,272.5126123000009,,,,,,,,,,,,,,,,ANR_FS002,23,Prefer not to say,Corrected,Ambidexterous,2026-06-19_11h58.29.334,stroop_oddball,,2026.1.3,59.96501640918934,2026-06-19 11h58.29.872655 +0100,
green,red,incongruent,r,STROOP_INCONG,81,81,0,None,0,,,,,,,,0,81,81,90,,,,,272.5232471999989,,,,,,,,,272.51336430000083,272.5232471999989,272.5232471999989,273.5227159999995,274.0125377000004,None,0,274.0126541999998,274.0235240999973,275.0124777000019,,,,,,,,,,,,,,,,ANR_FS002,23,Prefer not to say,Corrected,Ambidexterous,2026-06-19_11h58.29.334,stroop_oddball,,2026.1.3,59.96501640918934,2026-06-19 11h58.29.872655 +0100,
blue,blue,congruent,b,STROOP_CONG,82,82,0,None,0,,,,,,,,0,82,82,39,,,,,275.03856149999774,,,,,,,,,275.0172539999985,275.03856149999774,275.03856149999774,276.0398236999972,276.5129072999989,None,0,276.5130186000024,276.52316450000217,277.51238790000207,,,,,,,,,,,,,,,,ANR_FS002,23,Prefer not to say,Corrected,Ambidexterous,2026-06-19_11h58.29.334,stroop_oddball,,2026.1.3,59.96501640918934,2026-06-19 11h58.29.872655 +0100,
green,green,congruent,g,STROOP_CONG,83,83,0,None,0,,,,,,,,0,83,83,6,,,,,277.5384503000023,,,,,,,,,277.5176064000043,277.5384503000023,277.5384503000023,278.53987939999934,279.01228020000417,None,0,279.0123934000003,279.02316730000166,280.01240540000435,,,,,,,,,,,,,,,,ANR_FS002,23,Prefer not to say,Corrected,Ambidexterous,2026-06-19_11h58.29.334,stroop_oddball,,2026.1.3,59.96501640918934,2026-06-19 11h58.29.872655 +0100,
yellow,green,incongruent,g,STROOP_INCONG,84,84,0,None,0,,,,,,,,0,84,84,12,,,,,280.03811439999845,,,,,,,,,280.0174324000036,280.03811439999845,280.03811439999845,281.0397348000042,281.5120706000016,None,0,281.5121855000034,281.5229804999981,282.51184680000006,,,,,,,,,,,,,,,,ANR_FS002,23,Prefer not to say,Corrected,Ambidexterous,2026-06-19_11h58.29.334,stroop_oddball,,2026.1.3,59.96501640918934,2026-06-19 11h58.29.872655 +0100,
blue,green,incongruent,g,STROOP_INCONG,85,85,0,None,0,,,,,,,,0,85,85,52,,,,,282.53789880000113,,,,,,,,,282.5162872000001,282.53789880000113,282.53789880000113,283.53957079999964,284.01202970000304,None,0,284.0121418999988,284.0229488000041,285.01208269999916,,,,,,,,,,,,,,,,ANR_FS002,23,Prefer not to say,Corrected,Ambidexterous,2026-06-19_11h58.29.334,stroop_oddball,,2026.1.3,59.96501640918934,2026-06-19 11h58.29.872655 +0100,
green,green,congruent,g,STROOP_CONG,86,86,0,None,0,,,,,,,,0,86,86,97,,,,,285.03798370000004,,,,,,,,,285.01727570000367,285.03798370000004,285.03798370000004,286.03947670000343,286.51180849999946,None,0,286.5119244000016,286.52296670000214,287.5117573000025,,,,,,,,,,,,,,,,ANR_FS002,23,Prefer not to say,Corrected,Ambidexterous,2026-06-19_11h58.29.334,stroop_oddball,,2026.1.3,59.96501640918934,2026-06-19 11h58.29.872655 +0100,
green,blue,incongruent,b,STROOP_INCONG,87,87,0,None,0,,,,,,,,0,87,87,60,,,,,287.522335499998,,,,,,,,,287.5125057999976,287.522335499998,287.522335499998,288.52197909999813,289.0118552999993,None,0,289.01196860000346,289.02273850000347,290.00444470000366,,,,,,,,,,,,,,,,ANR_FS002,23,Prefer not to say,Corrected,Ambidexterous,2026-06-19_11h58.29.334,stroop_oddball,,2026.1.3,59.96501640918934,2026-06-19 11h58.29.872655 +0100,
yellow,green,incongruent,g,STROOP_INCONG,88,88,0,None,0,,,,,,,,0,88,88,5,,,,,290.03839829999924,,,,,,,,,290.01695029999973,290.03839829999924,290.03839829999924,291.0391995000027,291.5123182000025,None,0,291.5124369999976,291.52220430000307,292.51169559999835,,,,,,,,,,,,,,,,ANR_FS002,23,Prefer not to say,Corrected,Ambidexterous,2026-06-19_11h58.29.334,stroop_oddball,,2026.1.3,59.96501640918934,2026-06-19 11h58.29.872655 +0100,
blue,red,incongruent,r,STROOP_INCONG,89,89,0,None,0,,,,,,,,0,89,89,41,,,,,292.5376133000027,,,,,,,,,292.51600619999954,292.5376133000027,292.5376133000027,293.53918610000255,294.01181240000005,None,0,294.0119288999995,294.0225470000005,295.0115932999979,,,,,,,,,,,,,,,,ANR_FS002,23,Prefer not to say,Corrected,Ambidexterous,2026-06-19_11h58.29.334,stroop_oddball,,2026.1.3,59.96501640918934,2026-06-19 11h58.29.872655 +0100,
yellow,yellow,congruent,y,STROOP_CONG,90,90,0,None,0,,,,,,,,0,90,90,72,,,,,295.0375058999998,,,,,,,,,295.0166040999975,295.0375058999998,295.0375058999998,296.03894690000016,296.511293800002,None,0,296.51140920000034,296.52233620000334,297.51164260000223,,,,,,,,,,,,,,,,ANR_FS002,23,Prefer not to say,Corrected,Ambidexterous,2026-06-19_11h58.29.334,stroop_oddball,,2026.1.3,59.96501640918934,2026-06-19 11h58.29.872655 +0100,
yellow,yellow,congruent,y,STROOP_CONG,91,91,0,None,0,,,,,,,,0,91,91,31,,,,,297.522421499998,,,,,,,,,297.5124255999981,297.522421499998,297.522421499998,298.5223565999986,299.01140499999747,None,0,299.01152240000374,299.0218378999998,300.0113945999983,,,,,,,,,,,,,,,,ANR_FS002,23,Prefer not to say,Corrected,Ambidexterous,2026-06-19_11h58.29.334,stroop_oddball,,2026.1.3,59.96501640918934,2026-06-19 11h58.29.872655 +0100,
red,red,congruent,r,STROOP_CONG,92,92,0,None,0,,,,,,,,0,92,92,103,,,,,300.03719970000384,,,,,,,,,300.01591149999877,300.03719970000384,300.03719970000384,301.0387081000008,301.5113741000023,None,0,301.5114920999986,301.5221231000032,302.51130679999915,,,,,,,,,,,,,,,,ANR_FS002,23,Prefer not to say,Corrected,Ambidexterous,2026-06-19_11h58.29.334,stroop_oddball,,2026.1.3,59.96501640918934,2026-06-19 11h58.29.872655 +0100,
green,green,congruent,g,STROOP_CONG,93,93,0,None,0,,,,,,,,0,93,93,105,,,,,302.53711009999824,,,,,,,,,302.516472000003,302.53711009999824,302.53711009999824,303.5386561999985,304.01132569999754,None,0,304.01144249999925,304.02219490000425,305.0112439000004,,,,,,,,,,,,,,,,ANR_FS002,23,Prefer not to say,Corrected,Ambidexterous,2026-06-19_11h58.29.334,stroop_oddball,,2026.1.3,59.96501640918934,2026-06-19 11h58.29.872655 +0100,
yellow,yellow,congruent,y,STROOP_CONG,94,94,0,None,0,,,,,,,,0,94,94,82,,,,,305.0369703000033,,,,,,,,,305.01692609999736,305.0369703000033,305.0369703000033,306.0385294000007,306.51110509999853,None,0,306.5112203000026,306.52192600000126,307.519739000003,,,,,,,,,,,,,,,,ANR_FS002,23,Prefer not to say,Corrected,Ambidexterous,2026-06-19_11h58.29.334,stroop_oddball,,2026.1.3,59.96501640918934,2026-06-19 11h58.29.872655 +0100,
red,red,congruent,r,STROOP_CONG,95,95,0,None,0,,,,,,,,0,95,95,100,,,,,307.53674480000336,,,,,,,,,307.5239875999978,307.53674480000336,307.53674480000336,308.5382815999983,309.01097380000283,None,0,309.01108889999887,309.02183920000243,310.0098532999982,,,,,,,,,,,,,,,,ANR_FS002,23,Prefer not to say,Corrected,Ambidexterous,2026-06-19_11h58.29.334,stroop_oddball,,2026.1.3,59.96501640918934,2026-06-19 11h58.29.872655 +0100,
yellow,red,incongruent,r,STROOP_INCONG,96,96,0,None,0,,,,,,,,0,96,96,64,,,,,310.0360729000022,,,,,,,,,310.0148173999987,310.0360729000022,310.0360729000022,311.0380651000014,311.51084750000155,None,0,311.5109633000029,311.5217158000014,312.5108640000035,,,,,,,,,,,,,,,,ANR_FS002,23,Prefer not to say,Corrected,Ambidexterous,2026-06-19_11h58.29.334,stroop_oddball,,2026.1.3,59.96501640918934,2026-06-19 11h58.29.872655 +0100,
yellow,yellow,congruent,y,STROOP_CONG,97,97,0,None,0,,,,,,,,0,97,97,37,,,,,312.52165909999894,,,,,,,,,312.5116579000023,312.52165909999894,312.52165909999894,313.5216416999974,314.01083859999926,None,0,314.0109522999992,314.0216462000026,315.0106818999993,,,,,,,,,,,,,,,,ANR_FS002,23,Prefer not to say,Corrected,Ambidexterous,2026-06-19_11h58.29.334,stroop_oddball,,2026.1.3,59.96501640918934,2026-06-19 11h58.29.872655 +0100,
yellow,red,incongruent,r,STROOP_INCONG,98,98,0,None,0,,,,,,,,0,98,98,76,,,,,315.0212474,,,,,,,,,315.01143109999975,315.0212474,315.0212474,316.02148119999765,316.5106983000005,None,0,316.51081220000196,316.52155720000155,317.5105979,,,,,,,,,,,,,,,,ANR_FS002,23,Prefer not to say,Corrected,Ambidexterous,2026-06-19_11h58.29.334,stroop_oddball,,2026.1.3,59.96501640918934,2026-06-19 11h58.29.872655 +0100,
yellow,blue,incongruent,b,STROOP_INCONG,99,99,0,None,0,,,,,,,,0,99,99,66,,,,,317.5214558000007,,,,,,,,,317.511342400001,317.5214558000007,317.5214558000007,318.5214943000028,319.0104763999989,None,0,319.01059140000143,319.02101660000335,320.0104963999984,,,,,,,,,,,,,,,,ANR_FS002,23,Prefer not to say,Corrected,Ambidexterous,2026-06-19_11h58.29.334,stroop_oddball,,2026.1.3,59.96501640918934,2026-06-19 11h58.29.872655 +0100,
green,red,incongruent,r,STROOP_INCONG,100,100,0,None,0,,,,,,,,0,100,100,96,,,,,320.03630440000416,,,,,,,,,320.0166132000013,320.03630440000416,320.03630440000416,321.03786599999876,321.50990420000016,None,0,321.5100179000001,321.52127550000296,322.51041599999735,,,,,,,,,,,,,,,,ANR_FS002,23,Prefer not to say,Corrected,Ambidexterous,2026-06-19_11h58.29.334,stroop_oddball,,2026.1.3,59.96501640918934,2026-06-19 11h58.29.872655 +0100,
blue,yellow,incongruent,y,STROOP_INCONG,101,101,0,None,0,,,,,,,,0,101,101,54,,,,,322.5362260999973,,,,,,,,,322.51474120000057,322.5362260999973,322.5362260999973,323.5377332999997,324.0025958999977,None,0,324.00283959999797,324.020139799999,325.0102990000014,,,,,,,,,,,,,,,,ANR_FS002,23,Prefer not to say,Corrected,Ambidexterous,2026-06-19_11h58.29.334,stroop_oddball,,2026.1.3,59.96501640918934,2026-06-19 11h58.29.872655 +0100,
green,green,congruent,g,STROOP_CONG,102,102,0,None,0,,,,,,,,0,102,102,99,,,,,325.0361015000017,,,,,,,,,325.01511169999867,325.0361015000017,325.0361015000017,326.0375039999999,326.51011319999816,None,0,326.51022779999766,326.52096419999725,327.5101489000008,,,,,,,,,,,,,,,,ANR_FS002,23,Prefer not to say,Corrected,Ambidexterous,2026-06-19_11h58.29.334,stroop_oddball,,2026.1.3,59.96501640918934,2026-06-19 11h58.29.872655 +0100,
red,yellow,incongruent,y,STROOP_INCONG,103,103,0,None,0,,,,,,,,0,103,103,88,,,,,327.53507569999783,,,,,,,,,327.515015500001,327.53507569999783,327.53507569999783,328.5376318999988,329.0101001000003,None,0,329.01021420000325,329.02091449999716,330.00999550000415,,,,,,,,,,,,,,,,ANR_FS002,23,Prefer not to say,Corrected,Ambidexterous,2026-06-19_11h58.29.334,stroop_oddball,,2026.1.3,59.96501640918934,2026-06-19 11h58.29.872655 +0100,
yellow,red,incongruent,r,STROOP_INCONG,104,104,0,None,0,,,,,,,,0,104,104,19,,,,,330.03588730000047,,,,,,,,,330.0153444000025,330.03588730000047,330.03588730000047,331.03679840000405,331.5100031000038,None,0,331.5101188999979,331.5207650000011,332.5096582999977,,,,,,,,,,,,,,,,ANR_FS002,23,Prefer not to say,Corrected,Ambidexterous,2026-06-19_11h58.29.334,stroop_oddball,,2026.1.3,59.96501640918934,2026-06-19 11h58.29.872655 +0100,
blue,green,incongruent,g,STROOP_INCONG,105,105,0,None,0,,,,,,,,0,105,105,118,,,,,332.5358553999977,,,,,,,,,332.51398360000167,332.5358553999977,332.5358553999977,333.5368275000001,334.0096587000007,None,0,334.00977129999956,334.02044300000125,335.00954210000054,,,,,,,,,,,,,,,,ANR_FS002,23,Prefer not to say,Corrected,Ambidexterous,2026-06-19_11h58.29.334,stroop_oddball,,2026.1.3,59.96501640918934,2026-06-19 11h58.29.872655 +0100,
yellow,red,incongruent,r,STROOP_INCONG,106,106,0,None,0,,,,,,,,0,106,106,53,,,,,335.03561400000035,,,,,,,,,335.014720500003,335.03561400000035,335.03561400000035,336.0373576999991,336.5097467000014,None,0,336.50986479999847,336.5205449999994,337.5096648000035,,,,,,,,,,,,,,,,ANR_FS002,23,Prefer not to say,Corrected,Ambidexterous,2026-06-19_11h58.29.334,stroop_oddball,,2026.1.3,59.96501640918934,2026-06-19 11h58.29.872655 +0100,
yellow,yellow,congruent,y,STROOP_CONG,107,107,0,None,0,,,,,,,,0,107,107,61,,,,,337.5203554999971,,,,,,,,,337.5104280000014,337.5203554999971,337.5203554999971,338.52032429999963,339.0096221999993,None,0,339.00973610000074,339.020242700004,340.0094162000023,,,,,,,,,,,,,,,,ANR_FS002,23,Prefer not to say,Corrected,Ambidexterous,2026-06-19_11h58.29.334,stroop_oddball,,2026.1.3,59.96501640918934,2026-06-19 11h58.29.872655 +0100,
red,red,congruent,r,STROOP_CONG,108,108,0,None,0,,,,,,,,0,108,108,102,,,,,340.03539589999855,,,,,,,,,340.0138408999992,340.03539589999855,340.03539589999855,341.0368206999992,341.5095425000036,None,0,341.50965480000013,341.52028810000047,342.50917130000016,,,,,,,,,,,,,,,,ANR_FS002,23,Prefer not to say,Corrected,Ambidexterous,2026-06-19_11h58.29.334,stroop_oddball,,2026.1.3,59.96501640918934,2026-06-19 11h58.29.872655 +0100,
red,green,incongruent,g,STROOP_INCONG,109,109,0,None,0,,,,,,,,0,109,109,56,,,,,342.52015409999876,,,,,,,,,342.50992340000084,342.52015409999876,342.52015409999876,343.52012439999817,344.00923870000406,None,0,344.0093515999979,344.0200801000028,345.0091384999978,,,,,,,,,,,,,,,,ANR_FS002,23,Prefer not to say,Corrected,Ambidexterous,2026-06-19_11h58.29.334,stroop_oddball,,2026.1.3,59.96501640918934,2026-06-19 11h58.29.872655 +0100,
red,green,incongruent,g,STROOP_INCONG,110,110,0,None,0,,,,,,,,0,110,110,33,,,,,345.0200111000013,,,,,,,,,345.0099283000018,345.0200111000013,345.0200111000013,346.0200199000028,346.50996119999763,None,0,346.5100747000033,346.52001069999824,347.50899709999794,,,,,,,,,,,,,,,,ANR_FS002,23,Prefer not to say,Corrected,Ambidexterous,2026-06-19_11h58.29.334,stroop_oddball,,2026.1.3,59.96501640918934,2026-06-19 11h58.29.872655 +0100,
blue,red,incongruent,r,STROOP_INCONG,111,111,0,None,0,,,,,,,,0,111,111,67,,,,,347.535020299998,,,,,,,,,347.5133096999998,347.535020299998,347.535020299998,348.5356561000008,349.00888829999894,None,0,349.00900620000175,349.0197831999976,350.00904869999795,,,,,,,,,,,,,,,,ANR_FS002,23,Prefer not to say,Corrected,Ambidexterous,2026-06-19_11h58.29.334,stroop_oddball,,2026.1.3,59.96501640918934,2026-06-19 11h58.29.872655 +0100,
yellow,yellow,congruent,y,STROOP_CONG,112,112,0,None,0,,,,,,,,0,112,112,50,,,,,350.03479949999746,,,,,,,,,350.0148568000004,350.03479949999746,350.03479949999746,351.0365554000018,351.5089183000018,None,0,351.5090334999986,351.51970699999947,352.5086988000039,,,,,,,,,,,,,,,,ANR_FS002,23,Prefer not to say,Corrected,Ambidexterous,2026-06-19_11h58.29.334,stroop_oddball,,2026.1.3,59.96501640918934,2026-06-19 11h58.29.872655 +0100,
red,red,congruent,r,STROOP_CONG,113,113,0,None,0,,,,,,,,0,113,113,94,,,,,352.53491300000314,,,,,,,,,352.5129148999986,352.53491300000314,352.53491300000314,353.536334000004,354.0088267000028,None,0,354.0089416999981,354.0195581000007,355.0088079999987,,,,,,,,,,,,,,,,ANR_FS002,23,Prefer not to say,Corrected,Ambidexterous,2026-06-19_11h58.29.334,stroop_oddball,,2026.1.3,59.96501640918934,2026-06-19 11h58.29.872655 +0100,
blue,blue,congruent,b,STROOP_CONG,114,114,0,None,0,,,,,,,,0,114,114,89,,,,,355.03470180000295,,,,,,,,,355.0132920000033,355.03470180000295,355.03470180000295,356.0355617000023,356.5089513999992,None,0,356.5090657999972,356.5195509000041,357.50871129999723,,,,,,,,,,,,,,,,ANR_FS002,23,Prefer not to say,Corrected,Ambidexterous,2026-06-19_11h58.29.334,stroop_oddball,,2026.1.3,59.96501640918934,2026-06-19 11h58.29.872655 +0100,
yellow,yellow,congruent,y,STROOP_CONG,115,115,0,None,0,,,,,,,,0,115,115,79,,,,,357.53492659999756,,,,,,,,,357.5145235000018,357.53492659999756,357.53492659999756,358.53604440000345,359.00861910000094,None,0,359.00873370000045,359.0192926000018,360.00874340000155,,,,,,,,,,,,,,,,ANR_FS002,23,Prefer not to say,Corrected,Ambidexterous,2026-06-19_11h58.29.334,stroop_oddball,,2026.1.3,59.96501640918934,2026-06-19 11h58.29.872655 +0100,
red,red,congruent,r,STROOP_CONG,116,116,0,r,0,0.8286098000025959,0.14878879999741912,,,,,,0,116,116,65,,,,,360.0345585000032,,,,,,,,,360.0156033000021,360.0345585000032,360.0345585000032,361.03579990000435,361.50857610000094,r,0,361.50870600000053,361.51895610000065,362.50753650000115,0.8286098000025959,0.14878879999741912,,,,,,,,,,,,,,ANR_FS002,23,Prefer not to say,Corrected,Ambidexterous,2026-06-19_11h58.29.334,stroop_oddball,,2026.1.3,59.96501640918934,2026-06-19 11h58.29.872655 +0100,
blue,blue,congruent,b,STROOP_CONG,117,117,0,b,0,0.7078734000024269,0.10595650000323076,,,,,,0,117,117,111,,,,,362.5334763999999,,,,,,,,,362.5121253000034,362.5334763999999,362.5334763999999,363.53510670000105,364.0085063000006,b,0,364.00863650000247,364.0190403000015,365.00879749999876,0.7078734000024269,0.10595650000323076,,,,,,,,,,,,,,ANR_FS002,23,Prefer not to say,Corrected,Ambidexterous,2026-06-19_11h58.29.334,stroop_oddball,,2026.1.3,59.96501640918934,2026-06-19 11h58.29.872655 +0100,
yellow,yellow,congruent,y,STROOP_CONG,118,118,0,y,0,0.7357832999987295,0.09806140000000596,,,,,,0,118,118,26,,,,,365.03416350000043,,,,,,,,,365.0139147000009,365.03416350000043,365.03416350000043,366.0357979000037,366.5072982999991,y,0,366.5074272999991,366.51816150000377,367.5083291999981,0.7357832999987295,0.09806140000000596,,,,,,,,,,,,,,ANR_FS002,23,Prefer not to say,Corrected,Ambidexterous,2026-06-19_11h58.29.334,stroop_oddball,,2026.1.3,59.96501640918934,2026-06-19 11h58.29.872655 +0100,
red,yellow,incongruent,y,STROOP_INCONG,119,119,0,y,0,1.177362100002938,0.07564319999801228,,,,,,0,119,119,25,,,,,367.5341096999982,,,,,,,,,367.5128283000013,367.5341096999982,367.5341096999982,368.53565640000306,369.008279200003,y,0,369.00841200000286,369.0188677000042,370.00703839999915,1.177362100002938,0.07564319999801228,,,,,,,,,,,,,,ANR_FS002,23,Prefer not to say,Corrected,Ambidexterous,2026-06-19_11h58.29.334,stroop_oddball,,2026.1.3,59.96501640918934,2026-06-19 11h58.29.872655 +0100,
,,,,,,,,,,,,,,,,,,,,,,,,,,,,,,,,,,,,,,,,,,,,,,,370.0072291000033,370.0184018,430.00543520000065,,,,,,,,,,ANR_FS002,23,Prefer not to say,Corrected,Ambidexterous,2026-06-19_11h58.29.334,stroop_oddball,,2026.1.3,59.96501640918934,2026-06-19 11h58.29.872655 +0100,
,black,,n/a,ODDBALL_STANDARD,0,0,0,,,,,std,None,0,,,,,,,0,0,0,45,430.2301499000023,,,,,,,,,,,,,,,,431.50529280000046,431.5154047000033,432.50511720000213,,,,,,,430.2067190000016,430.2301499000023,430.2301499000023,431.2326908000032,431.5051652999973,None,0,,,ANR_FS002,23,Prefer not to say,Corrected,Ambidexterous,2026-06-19_11h58.29.334,stroop_oddball,,2026.1.3,59.96501640918934,2026-06-19 11h58.29.872655 +0100,
,black,,n/a,ODDBALL_STANDARD,1,1,0,,,,,std,None,0,,,,,,,0,1,1,57,432.5159848999974,,,,,,,,,,,,,,,,434.0050577000002,434.01594820000173,435.00642309999967,,,,,,,432.50627930000337,432.5159848999974,432.5159848999974,433.5159332999974,434.0049356000018,None,0,,,ANR_FS002,23,Prefer not to say,Corrected,Ambidexterous,2026-06-19_11h58.29.334,stroop_oddball,,2026.1.3,59.96501640918934,2026-06-19 11h58.29.872655 +0100,
,black,,n/a,ODDBALL_STANDARD,2,2,0,,,,,std,space,0,0.27960140000504907,0.10962929999368498,,,,,0,2,2,79,435.03097290000005,,,,,,,,,,,,,,,,436.5048994000026,436.5158003000033,437.5049493000042,,,,,,,435.0075378000038,435.03097290000005,435.03097290000005,436.03279730000213,436.5047639999975,space,0,0.27960140000504907,0.10962929999368498,ANR_FS002,23,Prefer not to say,Corrected,Ambidexterous,2026-06-19_11h58.29.334,stroop_oddball,,2026.1.3,59.96501640918934,2026-06-19 11h58.29.872655 +0100,
,red,,space,ODDBALL_TARGET,3,3,0,,,,,tgt,space,1,0.3051573000047938,0.12729259999468923,,,,,0,3,3,116,437.515799599998,,,,,,,,,,,,,,,,439.0039909000043,439.014677799998,440.0043521000043,,,,,,,437.5061341999972,437.515799599998,437.515799599998,438.5157216000007,439.00385449999885,space,1,0.3051573000047938,0.12729259999468923,ANR_FS002,23,Prefer not to say,Corrected,Ambidexterous,2026-06-19_11h58.29.334,stroop_oddball,,2026.1.3,59.96501640918934,2026-06-19 11h58.29.872655 +0100,
,black,,n/a,ODDBALL_STANDARD,4,4,0,,,,,std,space,0,0.32791849999921396,0.0766832000008435,,,,,0,4,4,146,440.015083899998,,,,,,,,,,,,,,,,441.5046358000036,441.51572000000306,442.5042467000021,,,,,,,440.00580210000044,440.015083899998,440.015083899998,441.0154358,441.5044953000033,space,0,0.32791849999921396,0.0766832000008435,ANR_FS002,23,Prefer not to say,Corrected,Ambidexterous,2026-06-19_11h58.29.334,stroop_oddball,,2026.1.3,59.96501640918934,2026-06-19 11h58.29.872655 +0100,
,black,,n/a,ODDBALL_STANDARD,5,5,0,,,,,std,space,0,0.6063627999974415,0.15098649999708869,,,,,0,5,5,71,442.5152873000043,,,,,,,,,,,,,,,,444.0045848000009,444.01543440000387,445.0044218999974,,,,,,,442.5053853999998,442.5152873000043,442.5152873000043,443.51525019999826,444.00444779999816,space,0,0.6063627999974415,0.15098649999708869,ANR_FS002,23,Prefer not to say,Corrected,Ambidexterous,2026-06-19_11h58.29.334,stroop_oddball,,2026.1.3,59.96501640918934,2026-06-19 11h58.29.872655 +0100,
,red,,space,ODDBALL_TARGET,6,6,0,,,,,tgt,space,1,0.4463006000005407,0.13173269999970216,,,,,0,6,6,20,445.0155375000031,,,,,,,,,,,,,,,,446.5044667999973,446.5153352999987,447.5033485000022,,,,,,,445.00557870000193,445.0155375000031,445.0155375000031,446.01537239999743,446.5043291999973,space,1,0.4463006000005407,0.13173269999970216,ANR_FS002,23,Prefer not to say,Corrected,Ambidexterous,2026-06-19_11h58.29.334,stroop_oddball,,2026.1.3,59.96501640918934,2026-06-19 11h58.29.872655 +0100,
,red,,space,ODDBALL_TARGET,7,7,0,,,,,tgt,space,1,0.7703113000025041,0.1805977999974857,,,,,0,7,7,144,447.5144280000022,,,,,,,,,,,,,,,,449.00441890000366,449.01504930000374,450.0042637000006,,,,,,,447.5045553000018,447.5144280000022,447.5144280000022,448.51464750000014,449.00428100000136,space,1,0.7703113000025041,0.1805977999974857,ANR_FS002,23,Prefer not to say,Corrected,Ambidexterous,2026-06-19_11h58.29.334,stroop_oddball,,2026.1.3,59.96501640918934,2026-06-19 11h58.29.872655 +0100,
,black,,n/a,ODDBALL_STANDARD,8,8,0,,,,,std,space,0,0.29778109999460867,0.1240304000020842,,,,,0,8,8,19,450.01522359999944,,,,,,,,,,,,,,,,451.504205199999,451.5149096000023,452.50405200000387,,,,,,,450.0054165000038,450.01522359999944,450.01522359999944,451.01502289999917,451.50406929999735,space,0,0.29778109999460867,0.1240304000020842,ANR_FS002,23,Prefer not to say,Corrected,Ambidexterous,2026-06-19_11h58.29.334,stroop_oddball,,2026.1.3,59.96501640918934,2026-06-19 11h58.29.872655 +0100,
,black,,n/a,ODDBALL_STANDARD,9,9,0,,,,,std,space,0,1.4557647999972687,None,,,,,0,9,9,76,452.51507539999875,,,,,,,,,,,,,,,,454.00411870000244,454.01493850000406,455.0039829000016,,,,,,,452.5052039000002,452.51507539999875,452.51507539999875,453.5149262999985,454.0039822000035,space,0,1.4557647999972687,None,ANR_FS002,23,Prefer not to say,Corrected,Ambidexterous,2026-06-19_11h58.29.334,stroop_oddball,,2026.1.3,59.96501640918934,2026-06-19 11h58.29.872655 +0100,
,black,,n/a,ODDBALL_STANDARD,10,10,0,,,,,std,None,0,,,,,,,0,10,10,8,455.01477619999787,,,,,,,,,,,,,,,,456.5039190000025,456.51468849999947,457.5037691000034,,,,,,,455.00514680000197,455.01477619999787,455.01477619999787,456.0138439000002,456.5037977000029,None,0,,,ANR_FS002,23,Prefer not to say,Corrected,Ambidexterous,2026-06-19_11h58.29.334,stroop_oddball,,2026.1.3,59.96501640918934,2026-06-19 11h58.29.872655 +0100,
,black,,n/a,ODDBALL_STANDARD,11,11,0,,,,,std,None,0,,,,,,,0,11,11,37,457.51496249999764,,,,,,,,,,,,,,,,459.0053074000025,459.01469960000395,460.0036743000019,,,,,,,457.5048714000004,457.51496249999764,457.51496249999764,458.5147577000025,459.0051852000033,None,0,,,ANR_FS002,23,Prefer not to say,Corrected,Ambidexterous,2026-06-19_11h58.29.334,stroop_oddball,,2026.1.3,59.96501640918934,2026-06-19 11h58.29.872655 +0100,
,black,,n/a,ODDBALL_STANDARD,12,12,0,,,,,std,None,0,,,,,,,0,12,12,81,460.0148077999984,,,,,,,,,,,,,,,,461.50382920000266,461.5147527000008,462.5035742999971,,,,,,,460.0048683999994,460.0148077999984,460.0148077999984,461.0138137000031,461.50370990000374,None,0,,,ANR_FS002,23,Prefer not to say,Corrected,Ambidexterous,2026-06-19_11h58.29.334,stroop_oddball,,2026.1.3,59.96501640918934,2026-06-19 11h58.29.872655 +0100,
,black,,n/a,ODDBALL_STANDARD,13,13,0,,,,,std,None,0,,,,,,,0,13,13,183,462.5147505999994,,,,,,,,,,,,,,,,464.00357670000085,464.01438860000053,465.0034741999989,,,,,,,462.50467030000436,462.5147505999994,462.5147505999994,463.51450150000164,464.0034558000043,None,0,,,ANR_FS002,23,Prefer not to say,Corrected,Ambidexterous,2026-06-19_11h58.29.334,stroop_oddball,,2026.1.3,59.96501640918934,2026-06-19 11h58.29.872655 +0100,
,red,,space,ODDBALL_TARGET,14,14,0,,,,,tgt,space,1,1.1218702000041958,0.16635500000120373,,,,,0,14,14,14,465.01453510000283,,,,,,,,,,,,,,,,466.50369800000044,466.51428719999967,467.5031149999995,,,,,,,465.0046316000007,465.01453510000283,465.01453510000283,466.0143328999984,466.503566600004,space,1,1.1218702000041958,0.16635500000120373,ANR_FS002,23,Prefer not to say,Corrected,Ambidexterous,2026-06-19_11h58.29.334,stroop_oddball,,2026.1.3,59.96501640918934,2026-06-19 11h58.29.872655 +0100,
,red,,space,ODDBALL_TARGET,15,15,0,,,,,tgt,None,0,,,,,,,0,15,15,173,467.5140198000008,,,,,,,,,,,,,,,,469.0033994999976,469.0140692999994,470.003171700002,,,,,,,467.50426519999746,467.5140198000008,467.5140198000008,468.51412379999965,469.0032659999997,None,0,,,ANR_FS002,23,Prefer not to say,Corrected,Ambidexterous,2026-06-19_11h58.29.334,stroop_oddball,,2026.1.3,59.96501640918934,2026-06-19 11h58.29.872655 +0100,
,red,,space,ODDBALL_TARGET,16,16,0,,,,,tgt,None,0,,,,,,,0,16,16,95,470.01433830000315,,,,,,,,,,,,,,,,471.5033320000002,471.51420450000296,472.5030814999991,,,,,,,470.00428100000136,470.01433830000315,470.01433830000315,471.01399530000344,471.5032085999992,None,0,,,ANR_FS002,23,Prefer not to say,Corrected,Ambidexterous,2026-06-19_11h58.29.334,stroop_oddball,,2026.1.3,59.96501640918934,2026-06-19 11h58.29.872655 +0100,
,black,,n/a,ODDBALL_STANDARD,17,17,0,,,,,std,None,0,,,,,,,0,17,17,103,472.5138411000007,,,,,,,,,,,,,,,,474.0033795999989,474.013369100001,475.00317350000114,,,,,,,472.5042287000033,472.5138411000007,472.5138411000007,473.51403220000066,474.0032557000013,None,0,,,ANR_FS002,23,Prefer not to say,Corrected,Ambidexterous,2026-06-19_11h58.29.334,stroop_oddball,,2026.1.3,59.96501640918934,2026-06-19 11h58.29.872655 +0100,
,red,,space,ODDBALL_TARGET,18,18,0,,,,,tgt,None,0,,,,,,,0,18,18,38,475.0138831000004,,,,,,,,,,,,,,,,476.50327310000284,476.513970699998,477.50201850000303,,,,,,,475.0043416999979,475.0138831000004,475.0138831000004,476.01389930000005,476.5031497000018,None,0,,,ANR_FS002,23,Prefer not to say,Corrected,Ambidexterous,2026-06-19_11h58.29.334,stroop_oddball,,2026.1.3,59.96501640918934,2026-06-19 11h58.29.872655 +0100,
,black,,n/a,ODDBALL_STANDARD,19,19,0,,,,,std,None,0,,,,,,,0,19,19,85,477.5132212000026,,,,,,,,,,,,,,,,479.00296700000035,479.0136746999997,480.0026732999977,,,,,,,477.50315989999945,477.5132212000026,477.5132212000026,478.51380639999843,479.0028442999974,None,0,,,ANR_FS002,23,Prefer not to say,Corrected,Ambidexterous,2026-06-19_11h58.29.334,stroop_oddball,,2026.1.3,59.96501640918934,2026-06-19 11h58.29.872655 +0100,
,red,,space,ODDBALL_TARGET,20,20,0,,,,,tgt,None,0,,,,,,,0,20,20,119,480.0139030999999,,,,,,,,,,,,,,,,481.5033256000024,481.5130844000014,482.5024013000002,,,,,,,480.0037905999998,480.0139030999999,480.0139030999999,481.01357650000136,481.5032014000026,None,0,,,ANR_FS002,23,Prefer not to say,Corrected,Ambidexterous,2026-06-19_11h58.29.334,stroop_oddball,,2026.1.3,59.96501640918934,2026-06-19 11h58.29.872655 +0100,
,black,,n/a,ODDBALL_STANDARD,21,21,0,,,,,std,None,0,,,,,,,0,21,21,143,482.5137356999985,,,,,,,,,,,,,,,,484.0026945999998,484.0135386999973,485.0025808999999,,,,,,,482.5035396000021,482.5137356999985,482.5137356999985,483.51352849999967,484.00257319999946,None,0,,,ANR_FS002,23,Prefer not to say,Corrected,Ambidexterous,2026-06-19_11h58.29.334,stroop_oddball,,2026.1.3,59.96501640918934,2026-06-19 11h58.29.872655 +0100,
,black,,n/a,ODDBALL_STANDARD,22,22,0,,,,,std,None,0,,,,,,,0,22,22,42,485.0135025999989,,,,,,,,,,,,,,,,486.50258230000327,486.5134939999989,487.5020783,,,,,,,485.00372960000095,485.0135025999989,485.0135025999989,486.01343720000295,486.50246300000435,None,0,,,ANR_FS002,23,Prefer not to say,Corrected,Ambidexterous,2026-06-19_11h58.29.334,stroop_oddball,,2026.1.3,59.96501640918934,2026-06-19 11h58.29.872655 +0100,
,black,,n/a,ODDBALL_STANDARD,23,23,0,,,,,std,None,0,,,,,,,0,23,23,5,487.5133614000006,,,,,,,,,,,,,,,,489.0025558999987,489.0133010999998,490.00224460000027,,,,,,,487.50322009999945,487.5133614000006,487.5133614000006,488.5133317,489.0024321000019,None,0,,,ANR_FS002,23,Prefer not to say,Corrected,Ambidexterous,2026-06-19_11h58.29.334,stroop_oddball,,2026.1.3,59.96501640918934,2026-06-19 11h58.29.872655 +0100,
,black,,n/a,ODDBALL_STANDARD,24,24,0,,,,,std,space,0,0.17904920000000857,0.18138180000096327,,,,,0,24,24,199,490.0134734000021,,,,,,,,,,,,,,,,491.5024773999976,491.5130133999992,492.5021401999984,,,,,,,490.0033459000042,490.0134734000021,490.0134734000021,491.01301760000206,491.5023407999979,space,0,0.17904920000000857,0.18138180000096327,ANR_FS002,23,Prefer not to say,Corrected,Ambidexterous,2026-06-19_11h58.29.334,stroop_oddball,,2026.1.3,59.96501640918934,2026-06-19 11h58.29.872655 +0100,
,black,,n/a,ODDBALL_STANDARD,25,25,0,,,,,std,space,0,1.3513807999988785,0.08860419999837177,,,,,0,25,25,92,492.51313110000046,,,,,,,,,,,,,,,,494.0021543999974,494.01311729999725,495.0023278000008,,,,,,,492.5033016000016,492.51313110000046,492.51313110000046,493.51299709999876,494.0020227999994,space,0,1.3513807999988785,0.08860419999837177,ANR_FS002,23,Prefer not to say,Corrected,Ambidexterous,2026-06-19_11h58.29.334,stroop_oddball,,2026.1.3,59.96501640918934,2026-06-19 11h58.29.872655 +0100,
,red,,space,ODDBALL_TARGET,26,26,0,,,,,tgt,,,,,,,,,0,26,26,124,495.01315640000394,,,,,,,,,,,,,,,,,,,,,,,,,495.0035188000038,495.01315640000394,495.01315640000394,,,,,,,,,,,,,,,,,,
