word,color,condition,correct_key,condition_tag,thisN,thisTrialN,thisRepN,key_resp_stroop.keys,key_resp_stroop.corr,stroop_loop.thisRepN,stroop_loop.thisTrialN,stroop_loop.thisN,stroop_loop.thisIndex,thisRow.t,notes,piloting,Baseline_routine.started,baseline_screen.started,Baseline_routine.stopped,stroop_Instruction.started,instructionStroop.started,stroop_Instruction.stopped,stroop_trial.started,stroop_stim.started,key_resp_stroop.started,stroop_stim.stopped,key_resp_stroop.stopped,stroop_trial.stopped,stroop_loop.key_resp_stroop.keys,stroop_loop.key_resp_stroop.corr,ITI.started,text.started,text.stopped,ITI.stopped,oddball_instruction.started,instructionOddball.started,participant,session,date,expName,expVersion,psychopyVersion,frameRate,expStart,
,,,,,,,,,,,,,,,,True,0.020581999997375533,0.03126999999949476,180.01379050000105,,,,,,,,,,,,,,,,,,pilot001,001,2026-06-19_11h30.36.675,stroop_oddball,,2026.1.3,60.03420749156483,2026-06-19 11h30.37.801156 +0100,
,,,,,,,,,,,,,,,,,,,,180.01387509999768,180.03937600000063,190.01364929999545,,,,,,,,,,,,,,,pilot001,001,2026-06-19_11h30.36.675,stroop_oddball,,2026.1.3,60.03420749156483,2026-06-19 11h30.37.801156 +0100,
yellow,yellow,congruent,y,STROOP_CONG,0,0,0,None,0,0,0,0,15,190.13856629999646,,,,,,,,,190.1267635999975,190.5075291999965,190.5075291999965,191.50767439999618,192.00757009999506,191.99694919999456,None,0,191.9970495000016,192.00757009999506,193.00741849999758,192.99686039999506,,,pilot001,001,2026-06-19_11h30.36.675,stroop_oddball,,2026.1.3,60.03420749156483,2026-06-19 11h30.37.801156 +0100,
yellow,yellow,congruent,y,STROOP_CONG,1,1,0,None,0,0,1,1,37,193.00741849999758,,,,,,,,,192.99760529999912,193.50736679999682,193.50736679999682,194.5073448999974,195.00740129999758,194.996891099996,None,0,194.99699169999803,195.00740129999758,196.0226565999983,195.99693729999854,,,pilot001,001,2026-06-19_11h30.36.675,stroop_oddball,,2026.1.3,60.03420749156483,2026-06-19 11h30.37.801156 +0100,
red,green,incongruent,g,STROOP_INCONG,2,2,0,None,0,0,2,2,36,196.0226565999983,,,,,,,,,196.0014347999968,196.50738779999665,196.50738779999665,197.5073248999979,198.00718359999883,197.9965424999973,None,0,197.99664679999842,198.00718359999883,199.00724429999536,198.9967067999969,,,pilot001,001,2026-06-19_11h30.36.675,stroop_oddball,,2026.1.3,60.03420749156483,2026-06-19 11h30.37.801156 +0100,
red,red,congruent,r,STROOP_CONG,3,3,0,None,0,0,3,3,103,199.00724429999536,,,,,,,,,198.99745199999597,199.50658280000061,199.50658280000061,200.50714359999984,201.00712170000043,200.9964331999945,None,0,200.9965349999984,201.00712170000043,202.00698510000075,201.99631769999542,,,pilot001,001,2026-06-19_11h30.36.675,stroop_oddball,,2026.1.3,60.03420749156483,2026-06-19 11h30.37.801156 +0100,
red,blue,incongruent,b,STROOP_INCONG,4,4,0,None,0,0,4,4,68,202.00698510000075,,,,,,,,,201.9970484000005,202.5069994000005,202.5069994000005,203.50709919999645,204.00710869999602,203.9962108999971,None,0,203.99631229999795,204.00710869999602,205.02202530000068,204.99651379999705,,,pilot001,001,2026-06-19_11h30.36.675,stroop_oddball,,2026.1.3,60.03420749156483,2026-06-19 11h30.37.801156 +0100,
yellow,yellow,congruent,y,STROOP_CONG,5,5,0,None,0,0,5,5,82,205.02202530000068,,,,,,,,,205.00183729999844,205.5069239000004,205.5069239000004,206.50694329999533,207.00600589999522,206.99507009999797,None,0,206.99517249999917,207.00600589999522,208.02117590000125,207.99626770000032,,,pilot001,001,2026-06-19_11h30.36.675,stroop_oddball,,2026.1.3,60.03420749156483,2026-06-19 11h30.37.801156 +0100,
green,green,congruent,g,STROOP_CONG,6,6,0,None,0,0,6,6,3,208.02117590000125,,,,,,,,,208.0037516999946,208.50598139999784,208.50598139999784,209.50585059999867,210.00614309999946,209.99786559999484,None,0,209.99797319999925,210.00614309999946,211.00603609999962,210.99568319999526,,,pilot001,001,2026-06-19_11h30.36.675,stroop_oddball,,2026.1.3,60.03420749156483,2026-06-19 11h30.37.801156 +0100,
green,yellow,incongruent,y,STROOP_INCONG,7,7,0,None,0,0,7,7,42,211.00603609999962,,,,,,,,,210.99661449999985,211.5060095000008,211.5060095000008,212.50584739999613,213.00609819999954,212.99521449999884,None,0,212.99531719999504,213.00609819999954,214.0214374999996,213.99580920000153,,,pilot001,001,2026-06-19_11h30.36.675,stroop_oddball,,2026.1.3,60.03420749156483,2026-06-19 11h30.37.801156 +0100,
yellow,yellow,congruent,y,STROOP_CONG,8,8,0,None,0,0,8,8,51,214.0214374999996,,,,,,,,,214.0008785999962,214.50587039999664,214.50587039999664,215.5061712999959,216.0056184999994,215.99496720000025,None,0,215.99507019999874,216.0056184999994,217.00548219999473,216.99459589999606,,,pilot001,001,2026-06-19_11h30.36.675,stroop_oddball,,2026.1.3,60.03420749156483,2026-06-19 11h30.37.801156 +0100,
red,blue,incongruent,b,STROOP_INCONG,9,9,0,None,0,0,9,9,24,217.00548219999473,,,,,,,,,216.99884259999817,217.50624339999922,217.50624339999922,218.5064648999978,219.00634899999568,218.9954230000003,None,0,218.9955254000015,219.00634899999568,220.0061057999992,219.99543849999463,,,pilot001,001,2026-06-19_11h30.36.675,stroop_oddball,,2026.1.3,60.03420749156483,2026-06-19 11h30.37.801156 +0100,
red,green,incongruent,g,STROOP_INCONG,10,10,0,None,0,0,10,10,33,220.0061057999992,,,,,,,,,219.9961914000014,220.5062958999988,220.5062958999988,221.5218462999983,222.00613650000014,221.99533719999454,None,0,221.99544179999793,222.00613650000014,223.00507919999654,222.99455959999614,,,pilot001,001,2026-06-19_11h30.36.675,stroop_oddball,,2026.1.3,60.03420749156483,2026-06-19 11h30.37.801156 +0100,
red,red,congruent,r,STROOP_CONG,11,11,0,None,0,0,11,11,94,223.00507919999654,,,,,,,,,222.99530180000147,223.50621029999456,223.50621029999456,224.50589809999656,225.00587599999562,224.99462449999555,None,0,224.9947261999987,225.00587599999562,226.02107189999515,225.99517199999536,,,pilot001,001,2026-06-19_11h30.36.675,stroop_oddball,,2026.1.3,60.03420749156483,2026-06-19 11h30.37.801156 +0100,
yellow,green,incongruent,g,STROOP_INCONG,12,12,0,None,0,0,12,12,5,226.02107189999515,,,,,,,,,226.00036009999894,226.50597849999758,226.50597849999758,227.5058293999973,228.00579479999578,227.99505109999882,None,0,227.99515450000035,228.00579479999578,229.00614649999625,228.99496830000135,,,pilot001,001,2026-06-19_11h30.36.675,stroop_oddball,,2026.1.3,60.03420749156483,2026-06-19 11h30.37.801156 +0100,
yellow,yellow,congruent,y,STROOP_CONG,13,13,0,None,0,0,13,13,84,229.00614649999625,,,,,,,,,228.99568729999737,229.5050615,229.5050615,230.5047654999944,231.00600219999615,230.99482789999456,None,0,230.99492939999618,231.00600219999615,232.0055108000015,231.9948332999993,,,pilot001,001,2026-06-19_11h30.36.675,stroop_oddball,,2026.1.3,60.03420749156483,2026-06-19 11h30.37.801156 +0100,
yellow,blue,incongruent,b,STROOP_INCONG,14,14,0,None,0,0,14,14,75,232.0055108000015,,,,,,,,,231.99557719999575,232.5047115999987,232.5047115999987,233.50572000000102,234.00568850000127,233.9948116000014,None,0,233.9949170999971,234.00568850000127,235.02061169999797,234.9947667000015,,,pilot001,001,2026-06-19_11h30.36.675,stroop_oddball,,2026.1.3,60.03420749156483,2026-06-19 11h30.37.801156 +0100,
red,green,incongruent,g,STROOP_INCONG,15,15,0,None,0,0,15,15,113,235.02061169999797,,,,,,,,,234.99914400000125,235.5055471999949,235.5055471999949,236.50464929999725,,237.0105975999977,None,0,237.0107257999989,237.0213294999994,,238.01017319999664,,,pilot001,001,2026-06-19_11h30.36.675,stroop_oddball,,2026.1.3,60.03420749156483,2026-06-19 11h30.37.801156 +0100,
yellow,red,incongruent,r,STROOP_INCONG,16,16,0,None,0,0,16,16,92,238.03596309999557,,,,,,,,,238.01534790000005,238.50546039999608,238.50546039999608,239.50519239999994,240.0052039000002,239.99444149999908,None,0,239.99454479999986,240.0052039000002,241.02019409999775,240.99452400000155,,,pilot001,001,2026-06-19_11h30.36.675,stroop_oddball,,2026.1.3,60.03420749156483,2026-06-19 11h30.37.801156 +0100,
red,yellow,incongruent,y,STROOP_INCONG,17,17,0,None,0,0,17,17,25,241.02019409999775,,,,,,,,,240.99898620000022,241.50528029999987,241.50528029999987,242.50426929999958,243.00524199999927,242.99443469999824,None,0,242.99453630000062,243.00524199999927,244.0052205999964,243.99434819999442,,,pilot001,001,2026-06-19_11h30.36.675,stroop_oddball,,2026.1.3,60.03420749156483,2026-06-19 11h30.37.801156 +0100,
red,red,congruent,r,STROOP_CONG,18,18,0,None,0,0,18,18,106,244.0052205999964,,,,,,,,,243.99512400000094,244.5042762000012,244.5042762000012,245.50422439999966,246.00504109999747,245.99402900000132,None,0,245.99412859999575,246.00504109999747,247.02002479999646,246.99415819999558,,,pilot001,001,2026-06-19_11h30.36.675,stroop_oddball,,2026.1.3,60.03420749156483,2026-06-19 11h30.37.801156 +0100,
blue,green,incongruent,g,STROOP_INCONG,19,19,0,None,0,0,19,19,118,247.02002479999646,,,,,,,,,246.99852609999652,247.50507490000018,247.50507490000018,248.5043144999945,249.00494069999695,248.99398479999945,None,0,248.99408799999946,249.00494069999695,250.0200584999984,249.99400510000123,,,pilot001,001,2026-06-19_11h30.36.675,stroop_oddball,,2026.1.3,60.03420749156483,2026-06-19 11h30.37.801156 +0100,
yellow,yellow,congruent,y,STROOP_CONG,20,20,0,None,0,0,20,20,31,250.0200584999984,,,,,,,,,249.9993364999973,250.50503819999722,250.50503819999722,251.50438949999807,,252.0098594999945,None,0,252.0099798999945,252.02145559999917,,253.01001589999942,,,pilot001,001,2026-06-19_11h30.36.675,stroop_oddball,,2026.1.3,60.03420749156483,2026-06-19 11h30.37.801156 +0100,
blue,yellow,incongruent,y,STROOP_INCONG,21,21,0,None,0,0,21,21,54,253.03551380000135,,,,,,,,,253.0149534999946,253.50462149999657,253.50462149999657,254.5044057999985,255.0047562999971,254.9938375999991,None,0,254.99393979999877,255.0047562999971,256.0045878999954,255.99377789999562,,,pilot001,001,2026-06-19_11h30.36.675,stroop_oddball,,2026.1.3,60.03420749156483,2026-06-19 11h30.37.801156 +0100,
blue,yellow,incongruent,y,STROOP_INCONG,22,22,0,None,0,0,22,22,8,256.0045878999954,,,,,,,,,255.99452960000053,256.5045527999973,256.5045527999973,257.5044304999974,258.0045160000009,257.9937329999957,None,0,257.99383659999876,258.0045160000009,259.01954280000064,258.99371759999485,,,pilot001,001,2026-06-19_11h30.36.675,stroop_oddball,,2026.1.3,60.03420749156483,2026-06-19 11h30.37.801156 +0100,
yellow,red,incongruent,r,STROOP_INCONG,23,23,0,None,0,0,23,23,19,259.01954280000064,,,,,,,,,258.99879549999605,259.5034885999994,259.5034885999994,260.5035080999951,261.0044205000013,260.9934357999955,None,0,260.99353999999585,261.0044205000013,262.01931269999477,261.9934349999967,,,pilot001,001,2026-06-19_11h30.36.675,stroop_oddball,,2026.1.3,60.03420749156483,2026-06-19 11h30.37.801156 +0100,
red,yellow,incongruent,y,STROOP_INCONG,24,24,0,None,0,0,24,24,83,262.01931269999477,,,,,,,,,261.99786329999915,262.50411039999744,262.50411039999744,263.5040794000015,264.00422139999864,263.99353139999585,None,0,263.99363679999806,264.00422139999864,265.0192390999946,264.9935398999951,,,pilot001,001,2026-06-19_11h30.36.675,stroop_oddball,,2026.1.3,60.03420749156483,2026-06-19 11h30.37.801156 +0100,
green,yellow,incongruent,y,STROOP_INCONG,25,25,0,None,0,0,25,25,112,265.0192390999946,,,,,,,,,264.9991981999992,265.5043028,265.5043028,266.5039725999959,,267.00860969999485,None,0,267.00873259999935,267.0197072999945,,268.0089997999967,,,pilot001,001,2026-06-19_11h30.36.675,stroop_oddball,,2026.1.3,60.03420749156483,2026-06-19 11h30.37.801156 +0100,
yellow,green,incongruent,g,STROOP_INCONG,26,26,0,None,0,0,26,26,40,268.0348947999955,,,,,,,,,268.0140048999965,268.5040362,268.5040362,269.50402659999963,270.0039786999987,269.9930203999975,None,0,269.99312400000053,270.0039786999987,271.01896439999837,270.99307540000154,,,pilot001,001,2026-06-19_11h30.36.675,stroop_oddball,,2026.1.3,60.03420749156483,2026-06-19 11h30.37.801156 +0100,
green,green,congruent,g,STROOP_CONG,27,27,0,None,0,0,27,27,21,271.01896439999837,,,,,,,,,270.9980413999947,271.50371079999604,271.50371079999604,272.5037166999973,273.00400939999963,272.99298550000094,None,0,272.99308929999825,273.00400939999963,274.01878349999606,273.99283089999517,,,pilot001,001,2026-06-19_11h30.36.675,stroop_oddball,,2026.1.3,60.03420749156483,2026-06-19 11h30.37.801156 +0100,
red,red,congruent,r,STROOP_CONG,28,28,0,None,0,0,28,28,98,274.01878349999606,,,,,,,,,273.99734629999875,274.5027747999993,274.5027747999993,275.5028583999956,276.00379460000113,275.9927530999994,None,0,275.992857199999,276.00379460000113,277.0186818000002,276.99258369999734,,,pilot001,001,2026-06-19_11h30.36.675,stroop_oddball,,2026.1.3,60.03420749156483,2026-06-19 11h30.37.801156 +0100,
yellow,yellow,congruent,y,STROOP_CONG,29,29,0,None,0,0,29,29,72,277.0186818000002,,,,,,,,,276.99767939999583,277.50345079999533,277.50345079999533,278.50357639999856,279.0036306999973,278.9924671999979,None,0,278.9925688000003,279.0036306999973,280.0185188999967,279.9926578000013,,,pilot001,001,2026-06-19_11h30.36.675,stroop_oddball,,2026.1.3,60.03420749156483,2026-06-19 11h30.37.801156 +0100,
green,red,incongruent,r,STROOP_INCONG,30,30,0,None,0,0,30,30,71,280.0185188999967,,,,,,,,,279.99766929999896,280.5035118999949,280.5035118999949,281.5032449999999,,282.00816009999835,None,0,282.0082837000009,282.01906519999466,,283.00900429999456,,,pilot001,001,2026-06-19_11h30.36.675,stroop_oddball,,2026.1.3,60.03420749156483,2026-06-19 11h30.37.801156 +0100,
green,green,congruent,g,STROOP_CONG,31,31,0,None,0,0,31,31,34,283.0191358000011,,,,,,,,,283.00987019999593,283.5035057999994,283.5035057999994,284.50324140000157,285.0032747000005,284.9928671999951,None,0,284.9929708999989,285.0032747000005,286.0182424999948,285.9924572999953,,,pilot001,001,2026-06-19_11h30.36.675,stroop_oddball,,2026.1.3,60.03420749156483,2026-06-19 11h30.37.801156 +0100,
blue,yellow,incongruent,y,STROOP_INCONG,32,32,0,None,0,0,32,32,80,286.0182424999948,,,,,,,,,285.9968347999966,286.5030714999957,286.5030714999957,287.5032213999948,288.0031716999947,287.99234910000087,None,0,287.99245439999504,288.0031716999947,289.0181956000015,288.99238109999715,,,pilot001,001,2026-06-19_11h30.36.675,stroop_oddball,,2026.1.3,60.03420749156483,2026-06-19 11h30.37.801156 +0100,
green,blue,incongruent,b,STROOP_INCONG,33,33,0,None,0,0,33,33,60,289.0181956000015,,,,,,,,,288.99761690000014,289.5023072999975,289.5023072999975,290.50207260000025,291.0030001999985,290.99230420000094,None,0,290.99240749999444,291.0030001999985,292.0022525999957,291.99129379999795,,,pilot001,001,2026-06-19_11h30.36.675,stroop_oddball,,2026.1.3,60.03420749156483,2026-06-19 11h30.37.801156 +0100,
green,blue,incongruent,b,STROOP_INCONG,34,34,0,None,0,0,34,34,48,292.0022525999957,,,,,,,,,291.99203009999474,292.50276779999695,292.50276779999695,293.5029310999962,294.0028897999946,293.9920157000015,None,0,293.99211959999957,294.0028897999946,295.01784469999984,294.9921050999983,,,pilot001,001,2026-06-19_11h30.36.675,stroop_oddball,,2026.1.3,60.03420749156483,2026-06-19 11h30.37.801156 +0100,
yellow,red,incongruent,r,STROOP_INCONG,35,35,0,None,0,0,35,35,76,295.01784469999984,,,,,,,,,294.99719339999865,295.5028338999982,295.5028338999982,296.50290099999984,,297.0072352999996,None,0,297.00735699999495,297.01850379999814,,298.0083134000015,,,pilot001,001,2026-06-19_11h30.36.675,stroop_oddball,,2026.1.3,60.03420749156483,2026-06-19 11h30.37.801156 +0100,
green,green,congruent,g,STROOP_CONG,36,36,0,None,0,0,36,36,105,298.03350019999925,,,,,,,,,298.01396069999464,298.50245189999987,298.50245189999987,299.5022802999956,300.0022556999975,299.9916108999969,None,0,299.99171560000104,300.0022556999975,301.01748589999625,300.99183549999725,,,pilot001,001,2026-06-19_11h30.36.675,stroop_oddball,,2026.1.3,60.03420749156483,2026-06-19 11h30.37.801156 +0100,
red,red,congruent,r,STROOP_CONG,37,37,0,None,0,0,37,37,63,301.01748589999625,,,,,,,,,300.9963445999965,301.50230490000104,301.50230490000104,302.5023966000008,303.00244639999437,302.99175449999893,None,0,302.9918589000008,303.00244639999437,304.002101099999,303.99161649999587,,,pilot001,001,2026-06-19_11h30.36.675,stroop_oddball,,2026.1.3,60.03420749156483,2026-06-19 11h30.37.801156 +0100,
red,red,congruent,r,STROOP_CONG,38,38,0,None,0,0,38,38,47,304.002101099999,,,,,,,,,303.9923682000008,304.50167019999935,304.50167019999935,305.5014153000011,306.0024498999992,305.9916333000001,None,0,305.99173719999817,306.0024498999992,307.0172348999986,306.99167060000036,,,pilot001,001,2026-06-19_11h30.36.675,stroop_oddball,,2026.1.3,60.03420749156483,2026-06-19 11h30.37.801156 +0100,
green,green,congruent,g,STROOP_CONG,39,39,0,None,0,0,39,39,18,307.0172348999986,,,,,,,,,306.9967833999981,307.50203989999864,307.50203989999864,308.50231189999613,309.0022917999959,308.9915353999968,None,0,308.9916392000014,309.0022917999959,310.0023392000003,309.99133979999897,,,pilot001,001,2026-06-19_11h30.36.675,stroop_oddball,,2026.1.3,60.03420749156483,2026-06-19 11h30.37.801156 +0100,
green,red,incongruent,r,STROOP_INCONG,40,40,0,None,0,0,40,40,7,310.0023392000003,,,,,,,,,309.992084599995,310.502024399997,310.502024399997,311.5021015999955,312.0018366000004,311.9910851999957,None,0,311.99118839999574,312.0018366000004,313.0161714999995,312.99096409999765,,,pilot001,001,2026-06-19_11h30.36.675,stroop_oddball,,2026.1.3,60.03420749156483,2026-06-19 11h30.37.801156 +0100,
blue,red,incongruent,r,STROOP_INCONG,41,41,0,None,0,0,41,41,49,313.0161714999995,,,,,,,,,312.99589849999757,313.5018998999949,313.5018998999949,314.5018826000014,315.0018895999965,314.9912639999966,None,0,314.9913669999951,315.0018895999965,316.01685319999524,315.99044649999996,,,pilot001,001,2026-06-19_11h30.36.675,stroop_oddball,,2026.1.3,60.03420749156483,2026-06-19 11h30.37.801156 +0100,
red,yellow,incongruent,y,STROOP_INCONG,42,42,0,None,0,0,42,42,88,316.01685319999524,,,,,,,,,315.99467020000156,316.5015781999973,316.5015781999973,317.5009227999981,318.00155889999587,317.99017710000044,None,0,317.99028199999884,318.00155889999587,319.0159263999958,318.99086309999984,,,pilot001,001,2026-06-19_11h30.36.675,stroop_oddball,,2026.1.3,60.03420749156483,2026-06-19 11h30.37.801156 +0100,
green,green,congruent,g,STROOP_CONG,43,43,0,None,0,0,43,43,78,319.0159263999958,,,,,,,,,318.9961368000004,319.50093209999613,319.50093209999613,320.50061399999686,321.0016642999981,320.99087699999654,None,0,320.99097990000155,321.0016642999981,322.01639779999823,321.9909861999986,,,pilot001,001,2026-06-19_11h30.36.675,stroop_oddball,,2026.1.3,60.03420749156483,2026-06-19 11h30.37.801156 +0100,
blue,green,incongruent,g,STROOP_INCONG,44,44,0,None,0,0,44,44,108,322.01639779999823,,,,,,,,,321.9953553000014,322.5015334999989,322.5015334999989,323.5014793999944,324.0017579999985,323.9908034999971,None,0,323.99090749999596,324.0017579999985,325.01634470000135,324.99023569999554,,,pilot001,001,2026-06-19_11h30.36.675,stroop_oddball,,2026.1.3,60.03420749156483,2026-06-19 11h30.37.801156 +0100,
red,red,congruent,r,STROOP_CONG,45,45,0,None,0,0,45,45,1,325.01634470000135,,,,,,,,,324.9945396999974,325.50145659999544,325.50145659999544,326.5013644999999,,327.0059168000007,None,0,327.006040799999,327.0172074000002,,328.0065734999953,,,pilot001,001,2026-06-19_11h30.36.675,stroop_oddball,,2026.1.3,60.03420749156483,2026-06-19 11h30.37.801156 +0100,
blue,red,incongruent,r,STROOP_INCONG,46,46,0,None,0,0,46,46,38,328.0316873999982,,,,,,,,,328.0113812999989,328.5010698999977,328.5010698999977,329.50116259999777,330.0012579999966,329.99041999999463,None,0,329.9905223999958,330.0012579999966,331.01618880000024,330.99049269999523,,,pilot001,001,2026-06-19_11h30.36.675,stroop_oddball,,2026.1.3,60.03420749156483,2026-06-19 11h30.37.801156 +0100,
red,green,incongruent,g,STROOP_INCONG,47,47,0,None,0,0,47,47,77,331.01618880000024,,,,,,,,,330.9950688999961,331.50090709999495,331.50090709999495,332.5010533999957,333.00106080000114,332.99008049999975,None,0,332.9901854999989,333.00106080000114,334.01602279999497,333.9902812,,,pilot001,001,2026-06-19_11h30.36.675,stroop_oddball,,2026.1.3,60.03420749156483,2026-06-19 11h30.37.801156 +0100,
green,green,congruent,g,STROOP_CONG,48,48,0,None,0,0,48,48,97,334.01602279999497,,,,,,,,,333.99556669999583,334.50001429999975,334.50001429999975,335.5000013999961,336.0010761000012,335.9902011000013,None,0,335.99030559999665,336.0010761000012,337.0006473999965,336.9902355999948,,,pilot001,001,2026-06-19_11h30.36.675,stroop_oddball,,2026.1.3,60.03420749156483,2026-06-19 11h30.37.801156 +0100,
green,yellow,incongruent,y,STROOP_INCONG,49,49,0,None,0,0,49,49,87,337.0006473999965,,,,,,,,,336.99099379999825,337.50082239999756,337.50082239999756,338.5008477999945,339.00091119999706,338.99009629999637,None,0,338.9901994999964,339.00091119999706,340.0156954999984,339.98984070000006,,,pilot001,001,2026-06-19_11h30.36.675,stroop_oddball,,2026.1.3,60.03420749156483,2026-06-19 11h30.37.801156 +0100,
blue,blue,congruent,b,STROOP_CONG,50,50,0,None,0,0,50,50,27,340.0156954999984,,,,,,,,,339.9941494999948,340.5006074999983,340.5006074999983,341.50062239999534,,342.00554679999914,None,0,342.0056872999994,342.01725019999867,,343.005476499995,,,pilot001,001,2026-06-19_11h30.36.675,stroop_oddball,,2026.1.3,60.03420749156483,2026-06-19 11h30.37.801156 +0100,
blue,yellow,incongruent,y,STROOP_INCONG,51,51,0,None,0,0,51,51,22,343.01629500000126,,,,,,,,,343.0062495999955,343.5005749999982,343.5005749999982,344.5004291000005,345.00042749999557,344.9897029999993,None,0,344.98980689999735,345.00042749999557,346.0154707999973,345.9897550999958,,,pilot001,001,2026-06-19_11h30.36.675,stroop_oddball,,2026.1.3,60.03420749156483,2026-06-19 11h30.37.801156 +0100,
yellow,yellow,congruent,y,STROOP_CONG,52,52,0,None,0,0,52,52,61,346.0154707999973,,,,,,,,,345.9951049999945,346.50038259999565,346.50038259999565,347.50034039999446,348.0002402999962,347.9893959999972,None,0,347.9894996000003,348.0002402999962,349.0001634,348.9896776999958,,,pilot001,001,2026-06-19_11h30.36.675,stroop_oddball,,2026.1.3,60.03420749156483,2026-06-19 11h30.37.801156 +0100,
yellow,yellow,congruent,y,STROOP_CONG,53,53,0,None,0,0,53,53,86,349.0001634,,,,,,,,,348.9904363999958,349.5001340999952,349.5001340999952,350.4991685999994,351.0000166999962,350.98958739999944,None,0,350.9896899000014,351.0000166999962,352.01511010000104,351.9894911999945,,,pilot001,001,2026-06-19_11h30.36.675,stroop_oddball,,2026.1.3,60.03420749156483,2026-06-19 11h30.37.801156 +0100,
red,yellow,incongruent,y,STROOP_INCONG,54,54,0,None,0,0,54,54,55,352.01511010000104,,,,,,,,,351.99401729999954,352.5000266999996,352.5000266999996,353.4999386999989,354.0002491999985,353.98938500000077,None,0,353.9894892999946,354.0002491999985,355.01498269999865,354.98900789999607,,,pilot001,001,2026-06-19_11h30.36.675,stroop_oddball,,2026.1.3,60.03420749156483,2026-06-19 11h30.37.801156 +0100,
blue,blue,congruent,b,STROOP_CONG,55,55,0,None,0,0,55,55,14,355.01498269999865,,,,,,,,,354.99331040000106,355.49982889999956,355.49982889999956,356.4998013000004,356.9998074999967,356.9893452999968,None,0,356.98944949999714,356.9998074999967,357.9989256999979,357.98806049999985,,,pilot001,001,2026-06-19_11h30.36.675,stroop_oddball,,2026.1.3,60.03420749156483,2026-06-19 11h30.37.801156 +0100,
blue,blue,congruent,b,STROOP_CONG,56,56,0,None,0,0,56,56,30,357.9989256999979,,,,,,,,,357.98884059999546,358.49971379999624,358.49971379999624,359.499581899996,359.99966579999455,359.9891911999948,None,0,359.9892927999972,359.99966579999455,361.01470379999955,360.98912809999456,,,pilot001,001,2026-06-19_11h30.36.675,stroop_oddball,,2026.1.3,60.03420749156483,2026-06-19 11h30.37.801156 +0100,
green,red,incongruent,r,STROOP_INCONG,57,57,0,None,0,0,57,57,9,361.01470379999955,,,,,,,,,360.9943984999991,361.49938819999807,361.49938819999807,362.4994494999992,362.99953729999834,362.9889766999986,None,0,362.9890755000015,362.99953729999834,363.99949679999554,363.98894109999674,,,pilot001,001,2026-06-19_11h30.36.675,stroop_oddball,,2026.1.3,60.03420749156483,2026-06-19 11h30.37.801156 +0100,
green,red,incongruent,r,STROOP_INCONG,58,58,0,None,0,0,58,58,96,363.99949679999554,,,,,,,,,363.98968030000106,364.4993478999968,364.4993478999968,365.4992854000011,365.99933220000094,365.98851779999677,None,0,365.98861499999475,365.99933220000094,367.0144883999965,366.98879920000036,,,pilot001,001,2026-06-19_11h30.36.675,stroop_oddball,,2026.1.3,60.03420749156483,2026-06-19 11h30.37.801156 +0100,
yellow,yellow,congruent,y,STROOP_CONG,59,59,0,None,0,0,59,59,117,367.0144883999965,,,,,,,,,366.99419349999516,367.49917540000024,367.49917540000024,368.4992229999989,,369.01585079999495,None,0,369.0161126999956,369.0316154999964,,370.00489150000067,,,pilot001,001,2026-06-19_11h30.36.675,stroop_oddball,,2026.1.3,60.03420749156483,2026-06-19 11h30.37.801156 +0100,
yellow,green,incongruent,g,STROOP_INCONG,60,60,0,None,0,0,60,60,69,370.0158921999973,,,,,,,,,370.0056725999966,370.49911849999626,370.49911849999626,371.4993226000006,371.99874279999494,371.98840989999735,None,0,371.9885084999987,371.99874279999494,372.99895699999615,372.98855699999694,,,pilot001,001,2026-06-19_11h30.36.675,stroop_oddball,,2026.1.3,60.03420749156483,2026-06-19 11h30.37.801156 +0100,
yellow,yellow,congruent,y,STROOP_CONG,61,61,0,None,0,0,61,61,59,372.99895699999615,,,,,,,,,372.9892970000001,373.4989185999948,373.4989185999948,374.4989474999966,374.998972399997,374.9884607999993,None,0,374.9885607999968,374.998972399997,375.9988901999968,375.98831770000106,,,pilot001,001,2026-06-19_11h30.36.675,stroop_oddball,,2026.1.3,60.03420749156483,2026-06-19 11h30.37.801156 +0100,
yellow,yellow,congruent,y,STROOP_CONG,62,62,0,None,0,0,62,62,79,375.9988901999968,,,,,,,,,375.9890921999977,376.4987938999984,376.4987938999984,377.49872889999824,377.99884519999614,377.98831659999996,None,0,377.98841399999947,377.99884519999614,379.0128984999974,378.9882440000001,,,pilot001,001,2026-06-19_11h30.36.675,stroop_oddball,,2026.1.3,60.03420749156483,2026-06-19 11h30.37.801156 +0100,
blue,blue,congruent,b,STROOP_CONG,63,63,0,None,0,0,63,63,16,379.0128984999974,,,,,,,,,378.9928027999995,379.5154997999998,379.5154997999998,380.51538539999456,,381.0043885999985,None,0,381.0045076999959,381.0155072999987,,382.0043058999945,,,pilot001,001,2026-06-19_11h30.36.675,stroop_oddball,,2026.1.3,60.03420749156483,2026-06-19 11h30.37.801156 +0100,
red,red,congruent,r,STROOP_CONG,64,64,0,None,0,0,64,64,29,382.0302942999988,,,,,,,,,382.00883089999843,382.5153078000003,382.5153078000003,383.51521109999885,,384.0043261999963,None,0,384.0044433000003,384.0153113999986,,385.00417359999847,,,pilot001,001,2026-06-19_11h30.36.675,stroop_oddball,,2026.1.3,60.03420749156483,2026-06-19 11h30.37.801156 +0100,
red,yellow,incongruent,y,STROOP_INCONG,65,65,0,None,0,0,65,65,114,385.0152070999975,,,,,,,,,385.0050091999947,385.51521859999775,385.51521859999775,386.51529350000055,,387.0034167999984,None,0,387.00353289999475,387.01415819999966,,388.003226599998,,,pilot001,001,2026-06-19_11h30.36.675,stroop_oddball,,2026.1.3,60.03420749156483,2026-06-19 11h30.37.801156 +0100,
red,red,congruent,r,STROOP_CONG,66,66,0,None,0,0,66,66,65,388.0143600999945,,,,,,,,,388.0039864999999,388.51509119999537,388.51509119999537,389.51502349999646,,390.0044235999958,None,0,390.0045428999947,390.01434940000036,,391.00391359999776,,,pilot001,001,2026-06-19_11h30.36.675,stroop_oddball,,2026.1.3,60.03420749156483,2026-06-19 11h30.37.801156 +0100,
blue,blue,congruent,b,STROOP_CONG,67,67,0,None,0,0,67,67,95,391.0301607000001,,,,,,,,,391.0086344999945,391.51489199999924,391.51489199999924,392.51487339999585,,393.00386069999513,None,0,393.0039789000002,393.01492889999645,,394.00394799999776,,,pilot001,001,2026-06-19_11h30.36.675,stroop_oddball,,2026.1.3,60.03420749156483,2026-06-19 11h30.37.801156 +0100,
blue,blue,congruent,b,STROOP_CONG,68,68,0,None,0,0,68,68,111,394.0148732000016,,,,,,,,,394.0047338000004,394.51479129999643,394.51479129999643,395.5139724999972,,396.00383869999496,None,0,396.00395410000056,396.0145535999982,,397.0037114000006,,,pilot001,001,2026-06-19_11h30.36.675,stroop_oddball,,2026.1.3,60.03420749156483,2026-06-19 11h30.37.801156 +0100,
green,green,congruent,g,STROOP_CONG,69,69,0,None,0,0,69,69,20,397.02979380000033,,,,,,,,,397.00877119999495,397.51395449999836,397.51395449999836,398.51459089999844,,399.00351899999805,None,0,399.00363169999764,399.0143769999995,,400.003578799995,,,pilot001,001,2026-06-19_11h30.36.675,stroop_oddball,,2026.1.3,60.03420749156483,2026-06-19 11h30.37.801156 +0100,
yellow,green,incongruent,g,STROOP_INCONG,70,70,0,None,0,0,70,70,12,400.0296890999962,,,,,,,,,400.01163509999606,400.5145526999986,400.5145526999986,401.51430979999714,,402.0034178999995,None,0,402.00353489999543,402.0142749000006,,403.00337469999795,,,pilot001,001,2026-06-19_11h30.36.675,stroop_oddball,,2026.1.3,60.03420749156483,2026-06-19 11h30.37.801156 +0100,
green,green,congruent,g,STROOP_CONG,71,71,0,None,0,0,71,71,74,403.02948910000123,,,,,,,,,403.0087510999947,403.514230599998,403.514230599998,404.5142618999962,,405.0039075999957,None,0,405.0040239999944,405.01367759999994,,406.0031639000008,,,pilot001,001,2026-06-19_11h30.36.675,stroop_oddball,,2026.1.3,60.03420749156483,2026-06-19 11h30.37.801156 +0100,
yellow,blue,incongruent,b,STROOP_INCONG,72,72,0,None,0,0,72,72,10,406.02827389999584,,,,,,,,,406.0086669000011,406.5141222999955,406.5141222999955,407.514271,,408.00316849999945,None,0,408.00328479999735,408.0141264999984,,409.00314519999665,,,pilot001,001,2026-06-19_11h30.36.675,stroop_oddball,,2026.1.3,60.03420749156483,2026-06-19 11h30.37.801156 +0100,
red,green,incongruent,g,STROOP_INCONG,73,73,0,None,0,0,73,73,56,409.029123100001,,,,,,,,,409.00782649999746,409.5140250999975,409.5140250999975,410.51305119999597,,411.0029979999963,None,0,411.00311549999606,411.0140137999988,,412.0031020999959,,,pilot001,001,2026-06-19_11h30.36.675,stroop_oddball,,2026.1.3,60.03420749156483,2026-06-19 11h30.37.801156 +0100,
red,blue,incongruent,b,STROOP_INCONG,74,74,0,None,0,0,74,74,93,412.01404919999914,,,,,,,,,412.0038671000002,412.51333899999736,412.51333899999736,413.51387769999565,,414.0031166999979,None,0,414.00323569999455,414.0138659000004,,415.0027554999979,,,pilot001,001,2026-06-19_11h30.36.675,stroop_oddball,,2026.1.3,60.03420749156483,2026-06-19 11h30.37.801156 +0100,
green,yellow,incongruent,y,STROOP_INCONG,75,75,0,None,0,0,75,75,44,415.02885029999743,,,,,,,,,415.00802999999723,415.51368479999655,415.51368479999655,416.51375079999707,,417.0023349999974,None,0,417.0024501000007,417.0136902999948,,418.0017497000008,,,pilot001,001,2026-06-19_11h30.36.675,stroop_oddball,,2026.1.3,60.03420749156483,2026-06-19 11h30.37.801156 +0100,
blue,red,incongruent,r,STROOP_INCONG,76,76,0,None,0,0,76,76,41,418.0131678999969,,,,,,,,,418.0061366999944,418.5134839999955,418.5134839999955,419.51361289999477,,420.0024151999969,None,0,420.0025378999999,420.01265989999956,,421.0019516999964,,,pilot001,001,2026-06-19_11h30.36.675,stroop_oddball,,2026.1.3,60.03420749156483,2026-06-19 11h30.37.801156 +0100,
green,green,congruent,g,STROOP_CONG,77,77,0,None,0,0,77,77,119,421.02775519999705,,,,,,,,,421.0069427999988,421.5135263999982,421.5135263999982,422.51348889999645,,423.00257430000056,None,0,423.00269209999533,423.0137227000014,,424.0025910999975,,,pilot001,001,2026-06-19_11h30.36.675,stroop_oddball,,2026.1.3,60.03420749156483,2026-06-19 11h30.37.801156 +0100,
blue,yellow,incongruent,y,STROOP_INCONG,78,78,0,None,0,0,78,78,23,424.02839129999484,,,,,,,,,424.007136799999,424.51347949999763,424.51347949999763,425.51260270000057,,426.0024287999986,None,0,426.0025448000015,426.0133386999951,,427.00232870000036,,,pilot001,001,2026-06-19_11h30.36.675,stroop_oddball,,2026.1.3,60.03420749156483,2026-06-19 11h30.37.801156 +0100,
red,red,congruent,r,STROOP_CONG,79,79,0,None,0,0,79,79,116,427.0283161999978,,,,,,,,,427.0072985000006,427.51220849999663,427.51220849999663,428.5131570999947,,429.00182819999463,None,0,429.0019431999972,429.01323609999963,,430.0020334000001,,,pilot001,001,2026-06-19_11h30.36.675,stroop_oddball,,2026.1.3,60.03420749156483,2026-06-19 11h30.37.801156 +0100,
red,red,congruent,r,STROOP_CONG,80,80,0,None,0,0,80,80,4,430.01311979999446,,,,,,,,,430.0027875999949,430.5129474999994,430.5129474999994,431.51306320000003,,432.00215889999527,None,0,432.00227379999706,432.0129003999973,,433.0019902999993,,,pilot001,001,2026-06-19_11h30.36.675,stroop_oddball,,2026.1.3,60.03420749156483,2026-06-19 11h30.37.801156 +0100,
green,yellow,incongruent,y,STROOP_INCONG,81,81,0,None,0,0,81,81,57,433.02792079999927,,,,,,,,,433.00674479999725,433.5127422000005,433.5127422000005,434.51298219999444,,435.0010459999976,None,0,435.00116479999997,435.01190289999795,,436.00238810000155,,,pilot001,001,2026-06-19_11h30.36.675,stroop_oddball,,2026.1.3,60.03420749156483,2026-06-19 11h30.37.801156 +0100,
blue,blue,congruent,b,STROOP_CONG,82,82,0,None,0,0,82,82,0,436.02719480000087,,,,,,,,,436.0079076999973,436.51261800000066,436.51261800000066,437.51265129999956,,438.0016878999959,None,0,438.0018049999999,438.0127616999962,,439.0017494999993,,,pilot001,001,2026-06-19_11h30.36.675,stroop_oddball,,2026.1.3,60.03420749156483,2026-06-19 11h30.37.801156 +0100,
red,blue,incongruent,b,STROOP_INCONG,83,83,0,None,0,0,83,83,109,439.02775850000035,,,,,,,,,439.0062611999965,439.5124924999982,439.5124924999982,440.51263439999457,,441.0015770999962,None,0,441.00170109999453,441.01270329999534,,442.00169269999606,,,pilot001,001,2026-06-19_11h30.36.675,stroop_oddball,,2026.1.3,60.03420749156483,2026-06-19 11h30.37.801156 +0100,
yellow,blue,incongruent,b,STROOP_INCONG,84,84,0,None,0,0,84,84,66,442.0276681999967,,,,,,,,,442.0072613000011,442.511806399998,442.511806399998,443.51154739999765,,444.0014783000006,None,0,444.0015979999953,444.01234409999597,,445.001760799998,,,pilot001,001,2026-06-19_11h30.36.675,stroop_oddball,,2026.1.3,60.03420749156483,2026-06-19 11h30.37.801156 +0100,
blue,blue,congruent,b,STROOP_CONG,85,85,0,None,0,0,85,85,115,445.02758149999863,,,,,,,,,445.00616340000124,445.5122771999959,445.5122771999959,446.512261099997,,447.0006627999974,None,0,447.0007792999968,447.01161449999927,,448.0014460999955,,,pilot001,001,2026-06-19_11h30.36.675,stroop_oddball,,2026.1.3,60.03420749156483,2026-06-19 11h30.37.801156 +0100,
red,red,congruent,r,STROOP_CONG,86,86,0,None,0,0,86,86,46,448.02726450000046,,,,,,,,,448.00576659999933,448.51214849999815,448.51214849999815,449.5123018000013,,450.016982299996,None,0,450.01710620000085,450.02803439999843,,451.0011020999955,,,pilot001,001,2026-06-19_11h30.36.675,stroop_oddball,,2026.1.3,60.03420749156483,2026-06-19 11h30.37.801156 +0100,
yellow,yellow,congruent,y,STROOP_CONG,87,87,0,None,0,0,87,87,26,451.02642950000154,,,,,,,,,451.00650389999646,451.512269699997,451.512269699997,452.51142329999857,,453.00138579999475,None,0,453.0015055999975,453.01211489999696,,454.00126810000074,,,pilot001,001,2026-06-19_11h30.36.675,stroop_oddball,,2026.1.3,60.03420749156483,2026-06-19 11h30.37.801156 +0100,
red,red,congruent,r,STROOP_CONG,88,88,0,None,0,0,88,88,100,454.02708329999587,,,,,,,,,454.005794699995,454.5119620999976,454.5119620999976,455.51166509999894,,456.000643899999,None,0,456.0007626000006,456.0119358000011,,457.0011499999964,,,pilot001,001,2026-06-19_11h30.36.675,stroop_oddball,,2026.1.3,60.03420749156483,2026-06-19 11h30.37.801156 +0100,
blue,blue,congruent,b,STROOP_CONG,89,89,0,None,0,0,89,89,70,457.02684379999846,,,,,,,,,457.0058054999972,457.5109983000002,457.5109983000002,458.5108274999948,,459.00059179999516,None,0,459.00070530000085,459.01179820000107,,460.000681599995,,,pilot001,001,2026-06-19_11h30.36.675,stroop_oddball,,2026.1.3,60.03420749156483,2026-06-19 11h30.37.801156 +0100,
green,green,congruent,g,STROOP_CONG,90,90,0,None,0,0,90,90,2,460.0266774999982,,,,,,,,,460.0056605999998,460.51159149999876,460.51159149999876,461.5114886999945,,462.0008123000007,None,0,462.00093090000155,462.0116377000013,,463.00091539999994,,,pilot001,001,2026-06-19_11h30.36.675,stroop_oddball,,2026.1.3,60.03420749156483,2026-06-19 11h30.37.801156 +0100,
yellow,blue,incongruent,b,STROOP_INCONG,91,91,0,None,0,0,91,91,81,463.026658099996,,,,,,,,,463.00626689999626,463.5116071999946,463.5116071999946,464.5114995999975,,465.01664979999623,None,0,465.0167689000009,465.0280165000004,,466.01666139999725,,,pilot001,001,2026-06-19_11h30.36.675,stroop_oddball,,2026.1.3,60.03420749156483,2026-06-19 11h30.37.801156 +0100,
green,green,congruent,g,STROOP_CONG,92,92,0,None,0,0,92,92,13,466.0419897999964,,,,,,,,,466.021751100001,466.5114536999972,466.5114536999972,467.511614199997,,468.0006570999976,None,0,468.00077809999493,468.01146660000086,,469.00051600000006,,,pilot001,001,2026-06-19_11h30.36.675,stroop_oddball,,2026.1.3,60.03420749156483,2026-06-19 11h30.37.801156 +0100,
red,blue,incongruent,b,STROOP_INCONG,93,93,0,None,0,0,93,93,104,469.0263588999951,,,,,,,,,469.00489519999974,469.5112287000011,469.5112287000011,470.5270759999985,,471.00046389999625,None,0,471.0005818999998,471.01123440000083,,472.0005033999987,,,pilot001,001,2026-06-19_11h30.36.675,stroop_oddball,,2026.1.3,60.03420749156483,2026-06-19 11h30.37.801156 +0100,
green,blue,incongruent,b,STROOP_INCONG,94,94,0,None,0,0,94,94,17,472.025533,,,,,,,,,472.00576569999976,472.5112829999998,472.5112829999998,473.526790099997,474.01087330000155,474.0000294999991,None,0,474.00012609999976,474.01087330000155,,475.00013279999985,,,pilot001,001,2026-06-19_11h30.36.675,stroop_oddball,,2026.1.3,60.03420749156483,2026-06-19 11h30.37.801156 +0100,
blue,red,incongruent,r,STROOP_INCONG,95,95,0,None,0,0,95,95,67,475.02603629999794,,,,,,,,,475.00477359999786,475.5433845000007,475.5433845000007,476.5439791999961,,477.0040966000015,None,0,477.0043110999977,477.02624159999687,,478.01673540000047,,,pilot001,001,2026-06-19_11h30.36.675,stroop_oddball,,2026.1.3,60.03420749156483,2026-06-19 11h30.37.801156 +0100,
blue,blue,congruent,b,STROOP_CONG,96,96,0,None,0,0,96,96,89,478.02742489999946,,,,,,,,,478.0179408999975,478.5109689999954,478.5109689999954,479.5108775999979,,480.01637949999713,None,0,480.0164952999985,480.0272924999954,,481.01557799999864,,,pilot001,001,2026-06-19_11h30.36.675,stroop_oddball,,2026.1.3,60.03420749156483,2026-06-19 11h30.37.801156 +0100,
yellow,blue,incongruent,b,STROOP_INCONG,97,97,0,None,0,0,97,97,32,481.0414807999987,,,,,,,,,481.02103499999794,481.54236419999506,481.54236419999506,482.54361439999775,,483.01633949999814,None,0,483.01645659999485,483.0271228999991,,484.0163840999958,,,pilot001,001,2026-06-19_11h30.36.675,stroop_oddball,,2026.1.3,60.03420749156483,2026-06-19 11h30.37.801156 +0100,
blue,blue,congruent,b,STROOP_CONG,98,98,0,None,0,0,98,98,62,484.0422966999977,,,,,,,,,484.02092529999936,484.5103620000009,484.5103620000009,485.5105672999998,486.0104951999965,485.99979309999617,None,0,485.9998923999956,486.0104951999965,487.01043509999727,486.9999693999998,,,pilot001,001,2026-06-19_11h30.36.675,stroop_oddball,,2026.1.3,60.03420749156483,2026-06-19 11h30.37.801156 +0100,
blue,blue,congruent,b,STROOP_CONG,99,99,0,None,0,0,99,99,58,487.01043509999727,,,,,,,,,487.00071229999594,487.5102764999974,487.5102764999974,488.50931280000077,,489.0256120999984,None,0,489.02573209999537,489.04211109999596,,490.0162257999982,,,pilot001,001,2026-06-19_11h30.36.675,stroop_oddball,,2026.1.3,60.03420749156483,2026-06-19 11h30.37.801156 +0100,
green,blue,incongruent,b,STROOP_INCONG,100,100,0,None,0,0,100,100,43,490.04194460000144,,,,,,,,,490.0212068999972,490.51011769999604,490.51011769999604,491.51019919999817,492.01014709999436,491.9995454999953,None,0,491.9996409000014,492.01014709999436,493.01005710000027,492.9993504000013,,,pilot001,001,2026-06-19_11h30.36.675,stroop_oddball,,2026.1.3,60.03420749156483,2026-06-19 11h30.37.801156 +0100,
green,red,incongruent,r,STROOP_INCONG,101,101,0,None,0,0,101,101,90,493.01005710000027,,,,,,,,,493.0001096999986,493.5102416000009,493.5102416000009,494.5096448999975,495.00994869999704,494.9993752999944,None,0,494.9994727000012,495.00994869999704,496.02388359999895,495.9982247000007,,,pilot001,001,2026-06-19_11h30.36.675,stroop_oddball,,2026.1.3,60.03420749156483,2026-06-19 11h30.37.801156 +0100,
yellow,yellow,congruent,y,STROOP_CONG,102,102,0,None,0,0,102,102,101,496.02388359999895,,,,,,,,,496.0029218999989,496.5099410999974,496.5099410999974,497.50903919999837,498.00990729999467,497.99927119999484,None,0,497.99936879999586,498.00990729999467,499.0248811999991,498.9992370999971,,,pilot001,001,2026-06-19_11h30.36.675,stroop_oddball,,2026.1.3,60.03420749156483,2026-06-19 11h30.37.801156 +0100,
blue,blue,congruent,b,STROOP_CONG,103,103,0,None,0,0,103,103,39,499.0248811999991,,,,,,,,,499.00380790000054,499.50975489999837,499.50975489999837,500.50970830000006,501.00964089999616,500.99883159999445,None,0,500.99892700000055,501.00964089999616,502.0097881999973,501.99907600000006,,,pilot001,001,2026-06-19_11h30.36.675,stroop_oddball,,2026.1.3,60.03420749156483,2026-06-19 11h30.37.801156 +0100,
blue,blue,congruent,b,STROOP_CONG,104,104,0,None,0,0,104,104,91,502.0097881999973,,,,,,,,,501.99981000000116,502.50902149999456,502.50902149999456,503.50869019999664,504.0095394999953,503.99893169999996,None,0,503.9990284000014,504.0095394999953,505.02462150000065,504.99874409999757,,,pilot001,001,2026-06-19_11h30.36.675,stroop_oddball,,2026.1.3,60.03420749156483,2026-06-19 11h30.37.801156 +0100,
green,blue,incongruent,b,STROOP_INCONG,105,105,0,None,0,0,105,105,28,505.02462150000065,,,,,,,,,505.00366279999434,505.50954120000097,505.50954120000097,506.50851039999543,507.00938529999985,506.99874629999977,None,0,506.99884490000113,507.00938529999985,508.02441949999775,507.99877710000146,,,pilot001,001,2026-06-19_11h30.36.675,stroop_oddball,,2026.1.3,60.03420749156483,2026-06-19 11h30.37.801156 +0100,
blue,green,incongruent,g,STROOP_INCONG,106,106,0,None,0,0,106,106,107,508.02441949999775,,,,,,,,,508.00329559999955,508.5092463999972,508.5092463999972,509.5089871999953,510.0093037999977,509.998780599999,None,0,509.9988779999985,510.0093037999977,511.02331419999973,510.99826629999734,,,pilot001,001,2026-06-19_11h30.36.675,stroop_oddball,,2026.1.3,60.03420749156483,2026-06-19 11h30.37.801156 +0100,
red,red,congruent,r,STROOP_CONG,107,107,0,None,0,0,107,107,102,511.02331419999973,,,,,,,,,511.00273449999804,511.50904259999515,511.50904259999515,512.5091685000007,513.0086059999958,512.9991542999996,None,0,512.9992551999967,513.0086059999958,514.0241689999966,513.9982074,,,pilot001,001,2026-06-19_11h30.36.675,stroop_oddball,,2026.1.3,60.03420749156483,2026-06-19 11h30.37.801156 +0100,
blue,green,incongruent,g,STROOP_INCONG,108,108,0,None,0,0,108,108,52,514.0241689999966,,,,,,,,,514.0026536000005,514.5089565999951,514.5089565999951,515.5090014000016,516.0087744999983,515.9982416999992,None,0,515.9983398999975,516.0087744999983,517.024069799998,516.9983423999947,,,pilot001,001,2026-06-19_11h30.36.675,stroop_oddball,,2026.1.3,60.03420749156483,2026-06-19 11h30.37.801156 +0100,
green,green,congruent,g,STROOP_CONG,109,109,0,None,0,0,109,109,73,517.024069799998,,,,,,,,,517.0033247999963,517.5088303000011,517.5088303000011,518.508937999999,519.0088370000012,518.9983384000006,None,0,518.9984377000001,519.0088370000012,520.0088245000006,519.9983532999977,,,pilot001,001,2026-06-19_11h30.36.675,stroop_oddball,,2026.1.3,60.03420749156483,2026-06-19 11h30.37.801156 +0100,
green,green,congruent,g,STROOP_CONG,110,110,0,None,0,0,110,110,99,520.0088245000006,,,,,,,,,519.9990949999992,520.5082149000009,520.5082149000009,521.5088188000009,522.0087667999978,521.9980814999944,None,0,521.998179299997,522.0087667999978,523.0236614999958,522.9976499999975,,,pilot001,001,2026-06-19_11h30.36.675,stroop_oddball,,2026.1.3,60.03420749156483,2026-06-19 11h30.37.801156 +0100,
blue,blue,congruent,b,STROOP_CONG,111,111,0,None,0,0,111,111,85,523.0236614999958,,,,,,,,,523.0019037999955,523.5085952000009,523.5085952000009,524.5085674000002,525.0085245999944,524.9982581000004,None,0,524.9983549999961,525.0085245999944,526.0078023999959,525.9970087999973,,,pilot001,001,2026-06-19_11h30.36.675,stroop_oddball,,2026.1.3,60.03420749156483,2026-06-19 11h30.37.801156 +0100,
red,red,congruent,r,STROOP_CONG,112,112,0,None,0,0,112,112,11,526.0078023999959,,,,,,,,,526.0012209999986,526.5083774000013,526.5083774000013,527.5083751999991,528.0078813,527.998402899997,None,0,527.9985126999964,528.0078813,529.0235939999984,528.9979189000005,,,pilot001,001,2026-06-19_11h30.36.675,stroop_oddball,,2026.1.3,60.03420749156483,2026-06-19 11h30.37.801156 +0100,
yellow,red,incongruent,r,STROOP_INCONG,113,113,0,None,0,0,113,113,53,529.0235939999984,,,,,,,,,529.0032875999968,529.5083487999946,529.5083487999946,530.5075304999991,531.0078491999957,530.9965303999998,None,0,530.9966268999997,531.0078491999957,532.0081214999955,531.997537999996,,,pilot001,001,2026-06-19_11h30.36.675,stroop_oddball,,2026.1.3,60.03420749156483,2026-06-19 11h30.37.801156 +0100,
yellow,red,incongruent,r,STROOP_INCONG,114,114,0,None,0,0,114,114,64,532.0081214999955,,,,,,,,,531.9983199999988,532.5081558999955,532.5081558999955,533.5081169999976,534.008093299999,533.9975570999959,None,0,533.9976543000012,534.008093299999,535.0231686999978,534.9974937000006,,,pilot001,001,2026-06-19_11h30.36.675,stroop_oddball,,2026.1.3,60.03420749156483,2026-06-19 11h30.37.801156 +0100,
blue,red,incongruent,r,STROOP_INCONG,115,115,0,None,0,0,115,115,110,535.0231686999978,,,,,,,,,535.0017593000011,535.5074677999946,535.5074677999946,536.5076818000016,537.0079803999979,536.9965129999982,None,0,536.9966156999944,537.0079803999979,538.0231923999963,537.9976681999979,,,pilot001,001,2026-06-19_11h30.36.675,stroop_oddball,,2026.1.3,60.03420749156483,2026-06-19 11h30.37.801156 +0100,
green,green,congruent,g,STROOP_CONG,116,116,0,None,0,0,116,116,6,538.0231923999963,,,,,,,,,538.0027246999962,538.5078761999976,538.5078761999976,539.5078037999992,540.0078253999964,539.9970303000009,None,0,539.9971264999986,540.0078253999964,541.022902699995,540.9970775999973,,,pilot001,001,2026-06-19_11h30.36.675,stroop_oddball,,2026.1.3,60.03420749156483,2026-06-19 11h30.37.801156 +0100,
yellow,green,incongruent,g,STROOP_INCONG,117,117,0,None,0,0,117,117,35,541.022902699995,,,,,,,,,541.0018105999989,541.5077419000008,541.5077419000008,542.5077132000006,543.0072151999993,542.9971222999957,None,0,542.9972214000009,543.0072151999993,544.0227744000003,543.9971691999963,,,pilot001,001,2026-06-19_11h30.36.675,stroop_oddball,,2026.1.3,60.03420749156483,2026-06-19 11h30.37.801156 +0100,
blue,green,incongruent,g,STROOP_INCONG,118,118,0,None,0,0,118,118,45,544.0227744000003,,,,,,,,,544.0015302999964,544.5075685999982,544.5075685999982,545.5075714999984,546.0075748999952,545.9966776000001,None,0,545.9967724999951,546.0075748999952,547.0226964999965,546.9969803999993,,,pilot001,001,2026-06-19_11h30.36.675,stroop_oddball,,2026.1.3,60.03420749156483,2026-06-19 11h30.37.801156 +0100,
yellow,yellow,congruent,y,STROOP_CONG,119,119,0,None,0,0,119,119,50,547.0226964999965,,,,,,,,,547.0022611999957,547.5074413999973,547.5074413999973,548.5066764000003,549.0073368999947,548.9968929999959,None,0,548.9969901000004,549.0073368999947,550.0077343999947,549.9970728999979,,,pilot001,001,2026-06-19_11h30.36.675,stroop_oddball,,2026.1.3,60.03420749156483,2026-06-19 11h30.37.801156 +0100,
,,,,,,,,,,,,,,,,,,,,,,,,,,,,,,,,,,,549.9972430999987,550.0077343999947,,,,,,,,,
